activity,acceleration_x,acceleration_y,acceleration_z,gyro_x,gyro_y,gyro_z
0,0.14621,0.324326,0.954971,0.017204,0.349071,0.215424
0,0.14621,0.324326,0.954971,0.017204,0.349071,0.215424
0,0.14621,0.324326,0.954971,0.017204,0.349071,0.215424
0,0.14621,0.324326,0.954971,0.017204,0.349071,0.215424
0,0.14621,0.324326,0.954971,0.017204,0.349071,0.215424
0,0.14621,0.324326,0.954971,0.017204,0.349071,0.215424
0,0.14621,0.324326,0.954971,0.017204,0.349071,0.215424
0,0.14621,0.324326,0.954971,0.017204,0.349071,0.215424
0,0.14621,0.324326,0.954971,0.017204,0.349071,0.215424
0,0.14621,0.324326,0.954971,0.017204,0.349071,0.215424
0,0.14621,0.324326,0.954971,0.017204,0.349071,0.215424
0,0.14621,0.324326,0.954971,0.017204,0.349071,0.215424
0,0.14621,0.324326,0.954971,0.017204,0.349071,0.215424
0,0.14621,0.324326,0.954971,0.017204,0.349071,0.215424
0,0.14621,0.324326,0.954971,0.017204,0.349071,0.215424
0,0.14621,0.324326,0.954971,0.017204,0.349071,0.215424
0,0.14621,0.324326,0.954971,0.017204,0.349071,0.215424
0,0.14621,0.324326,0.954971,0.017204,0.349071,0.215424
0,0.14621,0.324326,0.954971,0.017204,0.349071,0.215424
0,0.045044,0.363037,0.913116,0.063217,0.35132,0.024494
0,0.045044,0.363037,0.913116,0.063217,0.35132,0.024494
0,0.045044,0.363037,0.913116,0.063217,0.35132,0.024494
0,0.045044,0.363037,0.913116,0.063217,0.35132,0.024494
0,0.045044,0.363037,0.913116,0.063217,0.35132,0.024494
0,0.045044,0.363037,0.913116,0.063217,0.35132,0.024494
0,0.045044,0.363037,0.913116,0.063217,0.35132,0.024494
0,0.045044,0.363037,0.913116,0.063217,0.35132,0.024494
0,0.045044,0.363037,0.913116,0.063217,0.35132,0.024494
0,0.045044,0.363037,0.913116,0.063217,0.35132,0.024494
0,0.045044,0.363037,0.913116,0.063217,0.35132,0.024494
0,0.045044,0.363037,0.913116,0.063217,0.35132,0.024494
0,0.045044,0.363037,0.913116,0.063217,0.35132,0.024494
0,0.045044,0.363037,0.913116,0.063217,0.35132,0.024494
0,0.045044,0.363037,0.913116,0.063217,0.35132,0.024494
0,0.045044,0.363037,0.913116,0.063217,0.35132,0.024494
0,0.045044,0.363037,0.913116,0.063217,0.35132,0.024494
0,0.045044,0.363037,0.913116,0.063217,0.35132,0.024494
0,0.02063,0.34552,0.956741,0.171416,0.136985,0.143532
0,0.02063,0.34552,0.956741,0.171416,0.136985,0.143532
0,0.02063,0.34552,0.956741,0.171416,0.136985,0.143532
0,0.02063,0.34552,0.956741,0.171416,0.136985,0.143532
0,0.02063,0.34552,0.956741,0.171416,0.136985,0.143532
0,0.02063,0.34552,0.956741,0.171416,0.136985,0.143532
0,0.02063,0.34552,0.956741,0.171416,0.136985,0.143532
0,0.02063,0.34552,0.956741,0.171416,0.136985,0.143532
0,0.02063,0.34552,0.956741,0.171416,0.136985,0.143532
0,0.02063,0.34552,0.956741,0.171416,0.136985,0.143532
0,0.02063,0.34552,0.956741,0.171416,0.136985,0.143532
0,0.02063,0.34552,0.956741,0.171416,0.136985,0.143532
0,0.02063,0.34552,0.956741,0.171416,0.136985,0.143532
0,0.02063,0.34552,0.956741,0.171416,0.136985,0.143532
0,0.02063,0.34552,0.956741,0.171416,0.136985,0.143532
0,0.02063,0.34552,0.956741,0.171416,0.136985,0.143532
0,0.02063,0.34552,0.956741,0.171416,0.136985,0.143532
0,0.02063,0.34552,0.956741,0.171416,0.136985,0.143532
0,0.02063,0.34552,0.956741,0.171416,0.136985,0.143532
0,0.002533,0.40834,0.854416,0.001016,0.184655,0.031769
0,0.002533,0.40834,0.854416,0.001016,0.184655,0.031769
0,0.002533,0.40834,0.854416,0.001016,0.184655,0.031769
0,0.002533,0.40834,0.854416,0.001016,0.184655,0.031769
0,0.002533,0.40834,0.854416,0.001016,0.184655,0.031769
0,0.002533,0.40834,0.854416,0.001016,0.184655,0.031769
0,0.002533,0.40834,0.854416,0.001016,0.184655,0.031769
0,0.002533,0.40834,0.854416,0.001016,0.184655,0.031769
0,0.002533,0.40834,0.854416,0.001016,0.184655,0.031769
0,0.002533,0.40834,0.854416,0.001016,0.184655,0.031769
0,0.002533,0.40834,0.854416,0.001016,0.184655,0.031769
0,0.002533,0.40834,0.854416,0.001016,0.184655,0.031769
0,0.002533,0.40834,0.854416,0.001016,0.184655,0.031769
0,0.002533,0.40834,0.854416,0.001016,0.184655,0.031769
0,0.002533,0.40834,0.854416,0.001016,0.184655,0.031769
0,0.002533,0.40834,0.854416,0.001016,0.184655,0.031769
0,0.002533,0.40834,0.854416,0.001016,0.184655,0.031769
0,0.002533,0.40834,0.854416,0.001016,0.184655,0.031769
0,0.04361,0.429657,0.774078,0.257629,0.608477,0.497241
0,0.04361,0.429657,0.774078,0.257629,0.608477,0.497241
0,0.04361,0.429657,0.774078,0.257629,0.608477,0.497241
0,0.04361,0.429657,0.774078,0.257629,0.608477,0.497241
0,0.04361,0.429657,0.774078,0.257629,0.608477,0.497241
0,0.04361,0.429657,0.774078,0.257629,0.608477,0.497241
0,0.04361,0.429657,0.774078,0.257629,0.608477,0.497241
0,0.04361,0.429657,0.774078,0.257629,0.608477,0.497241
0,0.04361,0.429657,0.774078,0.257629,0.608477,0.497241
0,0.04361,0.429657,0.774078,0.257629,0.608477,0.497241
0,0.04361,0.429657,0.774078,0.257629,0.608477,0.497241
0,0.04361,0.429657,0.774078,0.257629,0.608477,0.497241
0,0.04361,0.429657,0.774078,0.257629,0.608477,0.497241
0,0.04361,0.429657,0.774078,0.257629,0.608477,0.497241
0,0.04361,0.429657,0.774078,0.257629,0.608477,0.497241
0,0.04361,0.429657,0.774078,0.257629,0.608477,0.497241
0,0.04361,0.429657,0.774078,0.257629,0.608477,0.497241
0,0.04361,0.429657,0.774078,0.257629,0.608477,0.497241
0,0.04361,0.429657,0.774078,0.257629,0.608477,0.497241
0,0.021744,0.48761,0.973434,1.305164,0.832195,0.393191
0,0.021744,0.48761,0.973434,1.305164,0.832195,0.393191
0,0.021744,0.48761,0.973434,1.305164,0.832195,0.393191
0,0.021744,0.48761,0.973434,1.305164,0.832195,0.393191
0,0.021744,0.48761,0.973434,1.305164,0.832195,0.393191
0,0.021744,0.48761,0.973434,1.305164,0.832195,0.393191
0,0.021744,0.48761,0.973434,1.305164,0.832195,0.393191
0,0.021744,0.48761,0.973434,1.305164,0.832195,0.393191
0,0.021744,0.48761,0.973434,1.305164,0.832195,0.393191
0,0.021744,0.48761,0.973434,1.305164,0.832195,0.393191
0,0.021744,0.48761,0.973434,1.305164,0.832195,0.393191
0,0.021744,0.48761,0.973434,1.305164,0.832195,0.393191
0,0.021744,0.48761,0.973434,1.305164,0.832195,0.393191
0,0.021744,0.48761,0.973434,1.305164,0.832195,0.393191
0,0.021744,0.48761,0.973434,1.305164,0.832195,0.393191
0,0.021744,0.48761,0.973434,1.305164,0.832195,0.393191
0,0.021744,0.48761,0.973434,1.305164,0.832195,0.393191
0,0.021744,0.48761,0.973434,1.305164,0.832195,0.393191
0,0.426071,0.515762,1.019577,0.372344,0.162651,0.934621
0,0.426071,0.515762,1.019577,0.372344,0.162651,0.934621
0,0.426071,0.515762,1.019577,0.372344,0.162651,0.934621
0,0.426071,0.515762,1.019577,0.372344,0.162651,0.934621
0,0.426071,0.515762,1.019577,0.372344,0.162651,0.934621
0,0.426071,0.515762,1.019577,0.372344,0.162651,0.934621
0,0.426071,0.515762,1.019577,0.372344,0.162651,0.934621
0,0.426071,0.515762,1.019577,0.372344,0.162651,0.934621
0,0.426071,0.515762,1.019577,0.372344,0.162651,0.934621
0,0.426071,0.515762,1.019577,0.372344,0.162651,0.934621
0,0.426071,0.515762,1.019577,0.372344,0.162651,0.934621
0,0.426071,0.515762,1.019577,0.372344,0.162651,0.934621
0,0.426071,0.515762,1.019577,0.372344,0.162651,0.934621
0,0.426071,0.515762,1.019577,0.372344,0.162651,0.934621
0,0.426071,0.515762,1.019577,0.372344,0.162651,0.934621
0,0.426071,0.515762,1.019577,0.372344,0.162651,0.934621
0,0.426071,0.515762,1.019577,0.372344,0.162651,0.934621
0,0.426071,0.515762,1.019577,0.372344,0.162651,0.934621
0,0.426071,0.515762,1.019577,0.372344,0.162651,0.934621
0,0.026443,0.423279,0.846054,0.037662,0.188032,0.265411
0,0.026443,0.423279,0.846054,0.037662,0.188032,0.265411
0,0.026443,0.423279,0.846054,0.037662,0.188032,0.265411
0,0.026443,0.423279,0.846054,0.037662,0.188032,0.265411
0,0.026443,0.423279,0.846054,0.037662,0.188032,0.265411
0,0.026443,0.423279,0.846054,0.037662,0.188032,0.265411
0,0.026443,0.423279,0.846054,0.037662,0.188032,0.265411
0,0.026443,0.423279,0.846054,0.037662,0.188032,0.265411
0,0.026443,0.423279,0.846054,0.037662,0.188032,0.265411
0,0.026443,0.423279,0.846054,0.037662,0.188032,0.265411
0,0.026443,0.423279,0.846054,0.037662,0.188032,0.265411
0,0.026443,0.423279,0.846054,0.037662,0.188032,0.265411
0,0.026443,0.423279,0.846054,0.037662,0.188032,0.265411
0,0.026443,0.423279,0.846054,0.037662,0.188032,0.265411
0,0.026443,0.423279,0.846054,0.037662,0.188032,0.265411
0,0.026443,0.423279,0.846054,0.037662,0.188032,0.265411
0,0.026443,0.423279,0.846054,0.037662,0.188032,0.265411
0,0.026443,0.423279,0.846054,0.037662,0.188032,0.265411
0,0.009476,0.495209,0.869888,0.021123,0.208691,0.277347
0,0.009476,0.495209,0.869888,0.021123,0.208691,0.277347
0,0.009476,0.495209,0.869888,0.021123,0.208691,0.277347
0,0.009476,0.495209,0.869888,0.021123,0.208691,0.277347
0,0.009476,0.495209,0.869888,0.021123,0.208691,0.277347
0,0.009476,0.495209,0.869888,0.021123,0.208691,0.277347
0,0.009476,0.495209,0.869888,0.021123,0.208691,0.277347
0,0.009476,0.495209,0.869888,0.021123,0.208691,0.277347
0,0.009476,0.495209,0.869888,0.021123,0.208691,0.277347
0,0.009476,0.495209,0.869888,0.021123,0.208691,0.277347
0,0.009476,0.495209,0.869888,0.021123,0.208691,0.277347
0,0.009476,0.495209,0.869888,0.021123,0.208691,0.277347
0,0.009476,0.495209,0.869888,0.021123,0.208691,0.277347
0,0.009476,0.495209,0.869888,0.021123,0.208691,0.277347
0,0.009476,0.495209,0.869888,0.021123,0.208691,0.277347
0,0.009476,0.495209,0.869888,0.021123,0.208691,0.277347
0,0.009476,0.495209,0.869888,0.021123,0.208691,0.277347
0,0.009476,0.495209,0.869888,0.021123,0.208691,0.277347
0,0.009476,0.495209,0.869888,0.021123,0.208691,0.277347
0,0.059433,0.392075,1.071091,0.293851,0.957332,0.081088
0,0.059433,0.392075,1.071091,0.293851,0.957332,0.081088
0,0.059433,0.392075,1.071091,0.293851,0.957332,0.081088
0,0.059433,0.392075,1.071091,0.293851,0.957332,0.081088
0,0.059433,0.392075,1.071091,0.293851,0.957332,0.081088
0,0.059433,0.392075,1.071091,0.293851,0.957332,0.081088
0,0.059433,0.392075,1.071091,0.293851,0.957332,0.081088
0,0.059433,0.392075,1.071091,0.293851,0.957332,0.081088
0,0.059433,0.392075,1.071091,0.293851,0.957332,0.081088
0,0.059433,0.392075,1.071091,0.293851,0.957332,0.081088
0,0.059433,0.392075,1.071091,0.293851,0.957332,0.081088
0,0.059433,0.392075,1.071091,0.293851,0.957332,0.081088
0,0.059433,0.392075,1.071091,0.293851,0.957332,0.081088
0,0.059433,0.392075,1.071091,0.293851,0.957332,0.081088
0,0.059433,0.392075,1.071091,0.293851,0.957332,0.081088
0,0.059433,0.392075,1.071091,0.293851,0.957332,0.081088
0,0.059433,0.392075,1.071091,0.293851,0.957332,0.081088
0,0.059433,0.392075,1.071091,0.293851,0.957332,0.081088
0,0.060364,0.117783,0.843155,0.053787,2.092921,2.140681
0,0.060364,0.117783,0.843155,0.053787,2.092921,2.140681
0,0.060364,0.117783,0.843155,0.053787,2.092921,2.140681
0,0.060364,0.117783,0.843155,0.053787,2.092921,2.140681
0,0.060364,0.117783,0.843155,0.053787,2.092921,2.140681
0,0.060364,0.117783,0.843155,0.053787,2.092921,2.140681
0,0.060364,0.117783,0.843155,0.053787,2.092921,2.140681
0,0.060364,0.117783,0.843155,0.053787,2.092921,2.140681
0,0.060364,0.117783,0.843155,0.053787,2.092921,2.140681
0,0.060364,0.117783,0.843155,0.053787,2.092921,2.140681
0,0.060364,0.117783,0.843155,0.053787,2.092921,2.140681
0,0.060364,0.117783,0.843155,0.053787,2.092921,2.140681
0,0.060364,0.117783,0.843155,0.053787,2.092921,2.140681
0,0.060364,0.117783,0.843155,0.053787,2.092921,2.140681
0,0.060364,0.117783,0.843155,0.053787,2.092921,2.140681
0,0.060364,0.117783,0.843155,0.053787,2.092921,2.140681
0,0.060364,0.117783,0.843155,0.053787,2.092921,2.140681
0,0.060364,0.117783,0.843155,0.053787,2.092921,2.140681
0,0.060364,0.117783,0.843155,0.053787,2.092921,2.140681
0,0.865219,0.227615,0.447418,0.643267,2.114077,1.815894
0,0.865219,0.227615,0.447418,0.643267,2.114077,1.815894
0,0.865219,0.227615,0.447418,0.643267,2.114077,1.815894
0,0.865219,0.227615,0.447418,0.643267,2.114077,1.815894
0,0.865219,0.227615,0.447418,0.643267,2.114077,1.815894
0,0.865219,0.227615,0.447418,0.643267,2.114077,1.815894
0,0.865219,0.227615,0.447418,0.643267,2.114077,1.815894
0,0.865219,0.227615,0.447418,0.643267,2.114077,1.815894
0,0.865219,0.227615,0.447418,0.643267,2.114077,1.815894
0,0.865219,0.227615,0.447418,0.643267,2.114077,1.815894
0,0.865219,0.227615,0.447418,0.643267,2.114077,1.815894
0,0.865219,0.227615,0.447418,0.643267,2.114077,1.815894
0,0.865219,0.227615,0.447418,0.643267,2.114077,1.815894
0,0.865219,0.227615,0.447418,0.643267,2.114077,1.815894
0,0.865219,0.227615,0.447418,0.643267,2.114077,1.815894
0,0.865219,0.227615,0.447418,0.643267,2.114077,1.815894
0,0.865219,0.227615,0.447418,0.643267,2.114077,1.815894
0,0.865219,0.227615,0.447418,0.643267,2.114077,1.815894
0,1.215408,0.271774,0.128799,1.849711,2.43776,1.223499
0,1.215408,0.271774,0.128799,1.849711,2.43776,1.223499
0,1.215408,0.271774,0.128799,1.849711,2.43776,1.223499
0,1.215408,0.271774,0.128799,1.849711,2.43776,1.223499
0,1.215408,0.271774,0.128799,1.849711,2.43776,1.223499
0,1.215408,0.271774,0.128799,1.849711,2.43776,1.223499
0,1.215408,0.271774,0.128799,1.849711,2.43776,1.223499
0,1.215408,0.271774,0.128799,1.849711,2.43776,1.223499
0,1.215408,0.271774,0.128799,1.849711,2.43776,1.223499
0,1.215408,0.271774,0.128799,1.849711,2.43776,1.223499
0,1.215408,0.271774,0.128799,1.849711,2.43776,1.223499
0,1.215408,0.271774,0.128799,1.849711,2.43776,1.223499
0,1.215408,0.271774,0.128799,1.849711,2.43776,1.223499
0,1.215408,0.271774,0.128799,1.849711,2.43776,1.223499
0,1.215408,0.271774,0.128799,1.849711,2.43776,1.223499
0,1.215408,0.271774,0.128799,1.849711,2.43776,1.223499
0,1.215408,0.271774,0.128799,1.849711,2.43776,1.223499
0,1.215408,0.271774,0.128799,1.849711,2.43776,1.223499
0,1.215408,0.271774,0.128799,1.849711,2.43776,1.223499
0,0.828766,0.245804,0.039062,0.352296,0.114866,0.257603
0,0.828766,0.245804,0.039062,0.352296,0.114866,0.257603
0,0.828766,0.245804,0.039062,0.352296,0.114866,0.257603
0,0.828766,0.245804,0.039062,0.352296,0.114866,0.257603
0,0.828766,0.245804,0.039062,0.352296,0.114866,0.257603
0,0.828766,0.245804,0.039062,0.352296,0.114866,0.257603
0,0.828766,0.245804,0.039062,0.352296,0.114866,0.257603
0,0.828766,0.245804,0.039062,0.352296,0.114866,0.257603
0,0.828766,0.245804,0.039062,0.352296,0.114866,0.257603
0,0.828766,0.245804,0.039062,0.352296,0.114866,0.257603
0,0.828766,0.245804,0.039062,0.352296,0.114866,0.257603
0,0.828766,0.245804,0.039062,0.352296,0.114866,0.257603
0,0.828766,0.245804,0.039062,0.352296,0.114866,0.257603
0,0.828766,0.245804,0.039062,0.352296,0.114866,0.257603
0,0.828766,0.245804,0.039062,0.352296,0.114866,0.257603
0,0.828766,0.245804,0.039062,0.352296,0.114866,0.257603
0,0.828766,0.245804,0.039062,0.352296,0.114866,0.257603
0,0.828766,0.245804,0.039062,0.352296,0.114866,0.257603
0,0.828766,0.245804,0.039062,0.352296,0.114866,0.257603
0,1.055115,0.546875,0.379349,0.811218,0.583192,0.847618
0,1.055115,0.546875,0.379349,0.811218,0.583192,0.847618
0,1.055115,0.546875,0.379349,0.811218,0.583192,0.847618
0,1.055115,0.546875,0.379349,0.811218,0.583192,0.847618
0,1.055115,0.546875,0.379349,0.811218,0.583192,0.847618
0,1.055115,0.546875,0.379349,0.811218,0.583192,0.847618
0,1.055115,0.546875,0.379349,0.811218,0.583192,0.847618
0,1.055115,0.546875,0.379349,0.811218,0.583192,0.847618
0,1.055115,0.546875,0.379349,0.811218,0.583192,0.847618
0,1.055115,0.546875,0.379349,0.811218,0.583192,0.847618
0,1.055115,0.546875,0.379349,0.811218,0.583192,0.847618
0,1.055115,0.546875,0.379349,0.811218,0.583192,0.847618
0,1.055115,0.546875,0.379349,0.811218,0.583192,0.847618
0,1.055115,0.546875,0.379349,0.811218,0.583192,0.847618
0,1.055115,0.546875,0.379349,0.811218,0.583192,0.847618
0,1.055115,0.546875,0.379349,0.811218,0.583192,0.847618
0,1.055115,0.546875,0.379349,0.811218,0.583192,0.847618
0,1.055115,0.546875,0.379349,0.811218,0.583192,0.847618
0,0.539444,0.501236,0.11676,0.244722,0.108241,0.542288
0,0.539444,0.501236,0.11676,0.244722,0.108241,0.542288
0,0.539444,0.501236,0.11676,0.244722,0.108241,0.542288
0,0.539444,0.501236,0.11676,0.244722,0.108241,0.542288
0,0.539444,0.501236,0.11676,0.244722,0.108241,0.542288
0,0.539444,0.501236,0.11676,0.244722,0.108241,0.542288
0,0.539444,0.501236,0.11676,0.244722,0.108241,0.542288
0,0.539444,0.501236,0.11676,0.244722,0.108241,0.542288
0,0.539444,0.501236,0.11676,0.244722,0.108241,0.542288
0,0.539444,0.501236,0.11676,0.244722,0.108241,0.542288
0,0.539444,0.501236,0.11676,0.244722,0.108241,0.542288
0,0.539444,0.501236,0.11676,0.244722,0.108241,0.542288
0,0.539444,0.501236,0.11676,0.244722,0.108241,0.542288
0,0.539444,0.501236,0.11676,0.244722,0.108241,0.542288
0,0.539444,0.501236,0.11676,0.244722,0.108241,0.542288
0,0.539444,0.501236,0.11676,0.244722,0.108241,0.542288
0,0.539444,0.501236,0.11676,0.244722,0.108241,0.542288
0,0.539444,0.501236,0.11676,0.244722,0.108241,0.542288
0,0.539444,0.501236,0.11676,0.244722,0.108241,0.542288
0,0.51413,0.775299,0.037552,1.357247,0.275473,1.828504
0,0.51413,0.775299,0.037552,1.357247,0.275473,1.828504
0,0.51413,0.775299,0.037552,1.357247,0.275473,1.828504
0,0.51413,0.775299,0.037552,1.357247,0.275473,1.828504
0,0.51413,0.775299,0.037552,1.357247,0.275473,1.828504
0,0.51413,0.775299,0.037552,1.357247,0.275473,1.828504
0,0.51413,0.775299,0.037552,1.357247,0.275473,1.828504
0,0.51413,0.775299,0.037552,1.357247,0.275473,1.828504
0,0.51413,0.775299,0.037552,1.357247,0.275473,1.828504
0,0.51413,0.775299,0.037552,1.357247,0.275473,1.828504
0,0.51413,0.775299,0.037552,1.357247,0.275473,1.828504
0,0.51413,0.775299,0.037552,1.357247,0.275473,1.828504
0,0.51413,0.775299,0.037552,1.357247,0.275473,1.828504
0,0.51413,0.775299,0.037552,1.357247,0.275473,1.828504
0,0.51413,0.775299,0.037552,1.357247,0.275473,1.828504
0,0.51413,0.775299,0.037552,1.357247,0.275473,1.828504
0,0.51413,0.775299,0.037552,1.357247,0.275473,1.828504
0,0.51413,0.775299,0.037552,1.357247,0.275473,1.828504
0,1.126404,0.328995,0.551376,0.434931,0.75101,0.783537
0,1.126404,0.328995,0.551376,0.434931,0.75101,0.783537
0,1.126404,0.328995,0.551376,0.434931,0.75101,0.783537
0,1.126404,0.328995,0.551376,0.434931,0.75101,0.783537
0,1.126404,0.328995,0.551376,0.434931,0.75101,0.783537
0,1.126404,0.328995,0.551376,0.434931,0.75101,0.783537
0,1.126404,0.328995,0.551376,0.434931,0.75101,0.783537
0,1.126404,0.328995,0.551376,0.434931,0.75101,0.783537
0,1.126404,0.328995,0.551376,0.434931,0.75101,0.783537
0,1.126404,0.328995,0.551376,0.434931,0.75101,0.783537
0,1.126404,0.328995,0.551376,0.434931,0.75101,0.783537
0,1.126404,0.328995,0.551376,0.434931,0.75101,0.783537
0,1.126404,0.328995,0.551376,0.434931,0.75101,0.783537
0,1.126404,0.328995,0.551376,0.434931,0.75101,0.783537
0,1.126404,0.328995,0.551376,0.434931,0.75101,0.783537
0,1.126404,0.328995,0.551376,0.434931,0.75101,0.783537
0,1.126404,0.328995,0.551376,0.434931,0.75101,0.783537
0,1.126404,0.328995,0.551376,0.434931,0.75101,0.783537
0,1.126404,0.328995,0.551376,0.434931,0.75101,0.783537
0,0.616486,0.404617,0.317169,0.10679,1.303944,0.127474
0,0.616486,0.404617,0.317169,0.10679,1.303944,0.127474
0,0.616486,0.404617,0.317169,0.10679,1.303944,0.127474
0,0.616486,0.404617,0.317169,0.10679,1.303944,0.127474
0,0.616486,0.404617,0.317169,0.10679,1.303944,0.127474
0,0.616486,0.404617,0.317169,0.10679,1.303944,0.127474
0,0.616486,0.404617,0.317169,0.10679,1.303944,0.127474
0,0.616486,0.404617,0.317169,0.10679,1.303944,0.127474
0,0.616486,0.404617,0.317169,0.10679,1.303944,0.127474
0,0.616486,0.404617,0.317169,0.10679,1.303944,0.127474
0,0.616486,0.404617,0.317169,0.10679,1.303944,0.127474
0,0.616486,0.404617,0.317169,0.10679,1.303944,0.127474
0,0.616486,0.404617,0.317169,0.10679,1.303944,0.127474
0,0.616486,0.404617,0.317169,0.10679,1.303944,0.127474
0,0.616486,0.404617,0.317169,0.10679,1.303944,0.127474
0,0.616486,0.404617,0.317169,0.10679,1.303944,0.127474
0,0.616486,0.404617,0.317169,0.10679,1.303944,0.127474
0,0.616486,0.404617,0.317169,0.10679,1.303944,0.127474
0,0.659668,0.482025,0.241165,0.479272,0.157415,0.315419
0,0.659668,0.482025,0.241165,0.479272,0.157415,0.315419
0,0.659668,0.482025,0.241165,0.479272,0.157415,0.315419
0,0.659668,0.482025,0.241165,0.479272,0.157415,0.315419
0,0.659668,0.482025,0.241165,0.479272,0.157415,0.315419
0,0.659668,0.482025,0.241165,0.479272,0.157415,0.315419
0,0.659668,0.482025,0.241165,0.479272,0.157415,0.315419
0,0.659668,0.482025,0.241165,0.479272,0.157415,0.315419
0,0.659668,0.482025,0.241165,0.479272,0.157415,0.315419
0,0.659668,0.482025,0.241165,0.479272,0.157415,0.315419
0,0.659668,0.482025,0.241165,0.479272,0.157415,0.315419
0,0.659668,0.482025,0.241165,0.479272,0.157415,0.315419
0,0.659668,0.482025,0.241165,0.479272,0.157415,0.315419
0,0.659668,0.482025,0.241165,0.479272,0.157415,0.315419
0,0.659668,0.482025,0.241165,0.479272,0.157415,0.315419
0,0.659668,0.482025,0.241165,0.479272,0.157415,0.315419
0,0.659668,0.482025,0.241165,0.479272,0.157415,0.315419
0,0.659668,0.482025,0.241165,0.479272,0.157415,0.315419
0,0.659668,0.482025,0.241165,0.479272,0.157415,0.315419
0,0.850937,0.272888,0.033722,0.501453,0.346301,1.059357
0,0.850937,0.272888,0.033722,0.501453,0.346301,1.059357
0,0.850937,0.272888,0.033722,0.501453,0.346301,1.059357
0,0.850937,0.272888,0.033722,0.501453,0.346301,1.059357
0,0.850937,0.272888,0.033722,0.501453,0.346301,1.059357
0,0.850937,0.272888,0.033722,0.501453,0.346301,1.059357
0,0.850937,0.272888,0.033722,0.501453,0.346301,1.059357
0,0.850937,0.272888,0.033722,0.501453,0.346301,1.059357
0,0.850937,0.272888,0.033722,0.501453,0.346301,1.059357
0,0.850937,0.272888,0.033722,0.501453,0.346301,1.059357
0,0.850937,0.272888,0.033722,0.501453,0.346301,1.059357
0,0.850937,0.272888,0.033722,0.501453,0.346301,1.059357
0,0.850937,0.272888,0.033722,0.501453,0.346301,1.059357
0,0.850937,0.272888,0.033722,0.501453,0.346301,1.059357
0,0.850937,0.272888,0.033722,0.501453,0.346301,1.059357
0,0.850937,0.272888,0.033722,0.501453,0.346301,1.059357
0,0.850937,0.272888,0.033722,0.501453,0.346301,1.059357
0,0.850937,0.272888,0.033722,0.501453,0.346301,1.059357
0,0.906174,0.010681,0.006912,0.141464,1.200995,1.785871
0,0.906174,0.010681,0.006912,0.141464,1.200995,1.785871
0,0.906174,0.010681,0.006912,0.141464,1.200995,1.785871
0,0.906174,0.010681,0.006912,0.141464,1.200995,1.785871
0,0.906174,0.010681,0.006912,0.141464,1.200995,1.785871
0,0.906174,0.010681,0.006912,0.141464,1.200995,1.785871
0,0.906174,0.010681,0.006912,0.141464,1.200995,1.785871
0,0.906174,0.010681,0.006912,0.141464,1.200995,1.785871
0,0.906174,0.010681,0.006912,0.141464,1.200995,1.785871
0,0.906174,0.010681,0.006912,0.141464,1.200995,1.785871
0,0.906174,0.010681,0.006912,0.141464,1.200995,1.785871
0,0.906174,0.010681,0.006912,0.141464,1.200995,1.785871
0,0.906174,0.010681,0.006912,0.141464,1.200995,1.785871
0,0.906174,0.010681,0.006912,0.141464,1.200995,1.785871
0,0.906174,0.010681,0.006912,0.141464,1.200995,1.785871
0,0.906174,0.010681,0.006912,0.141464,1.200995,1.785871
0,0.906174,0.010681,0.006912,0.141464,1.200995,1.785871
0,0.906174,0.010681,0.006912,0.141464,1.200995,1.785871
0,0.906174,0.010681,0.006912,0.141464,1.200995,1.785871
0,1.232132,0.164566,0.086609,0.409108,0.545319,1.563023
0,1.232132,0.164566,0.086609,0.409108,0.545319,1.563023
0,1.232132,0.164566,0.086609,0.409108,0.545319,1.563023
0,1.232132,0.164566,0.086609,0.409108,0.545319,1.563023
0,1.232132,0.164566,0.086609,0.409108,0.545319,1.563023
0,1.232132,0.164566,0.086609,0.409108,0.545319,1.563023
0,1.232132,0.164566,0.086609,0.409108,0.545319,1.563023
0,1.232132,0.164566,0.086609,0.409108,0.545319,1.563023
0,1.232132,0.164566,0.086609,0.409108,0.545319,1.563023
0,1.232132,0.164566,0.086609,0.409108,0.545319,1.563023
0,1.232132,0.164566,0.086609,0.409108,0.545319,1.563023
0,1.232132,0.164566,0.086609,0.409108,0.545319,1.563023
0,1.232132,0.164566,0.086609,0.409108,0.545319,1.563023
0,1.232132,0.164566,0.086609,0.409108,0.545319,1.563023
0,1.232132,0.164566,0.086609,0.409108,0.545319,1.563023
0,1.232132,0.164566,0.086609,0.409108,0.545319,1.563023
0,1.232132,0.164566,0.086609,0.409108,0.545319,1.563023
0,1.232132,0.164566,0.086609,0.409108,0.545319,1.563023
0,0.948532,0.381775,0.199417,0.302289,0.060185,1.031151
0,0.948532,0.381775,0.199417,0.302289,0.060185,1.031151
0,0.948532,0.381775,0.199417,0.302289,0.060185,1.031151
0,0.948532,0.381775,0.199417,0.302289,0.060185,1.031151
0,0.948532,0.381775,0.199417,0.302289,0.060185,1.031151
0,0.948532,0.381775,0.199417,0.302289,0.060185,1.031151
0,0.948532,0.381775,0.199417,0.302289,0.060185,1.031151
0,0.948532,0.381775,0.199417,0.302289,0.060185,1.031151
0,0.948532,0.381775,0.199417,0.302289,0.060185,1.031151
0,0.948532,0.381775,0.199417,0.302289,0.060185,1.031151
0,0.948532,0.381775,0.199417,0.302289,0.060185,1.031151
0,0.948532,0.381775,0.199417,0.302289,0.060185,1.031151
0,0.948532,0.381775,0.199417,0.302289,0.060185,1.031151
0,0.948532,0.381775,0.199417,0.302289,0.060185,1.031151
0,0.948532,0.381775,0.199417,0.302289,0.060185,1.031151
0,0.948532,0.381775,0.199417,0.302289,0.060185,1.031151
0,0.948532,0.381775,0.199417,0.302289,0.060185,1.031151
0,0.948532,0.381775,0.199417,0.302289,0.060185,1.031151
0,0.948532,0.381775,0.199417,0.302289,0.060185,1.031151
0,0.553345,0.801315,0.039642,0.420773,0.42053,0.844371
0,0.553345,0.801315,0.039642,0.420773,0.42053,0.844371
0,0.553345,0.801315,0.039642,0.420773,0.42053,0.844371
0,0.553345,0.801315,0.039642,0.420773,0.42053,0.844371
0,0.553345,0.801315,0.039642,0.420773,0.42053,0.844371
0,0.553345,0.801315,0.039642,0.420773,0.42053,0.844371
0,0.553345,0.801315,0.039642,0.420773,0.42053,0.844371
0,0.553345,0.801315,0.039642,0.420773,0.42053,0.844371
0,0.553345,0.801315,0.039642,0.420773,0.42053,0.844371
0,0.553345,0.801315,0.039642,0.420773,0.42053,0.844371
0,0.553345,0.801315,0.039642,0.420773,0.42053,0.844371
0,0.553345,0.801315,0.039642,0.420773,0.42053,0.844371
0,0.553345,0.801315,0.039642,0.420773,0.42053,0.844371
0,0.553345,0.801315,0.039642,0.420773,0.42053,0.844371
0,0.553345,0.801315,0.039642,0.420773,0.42053,0.844371
0,0.553345,0.801315,0.039642,0.420773,0.42053,0.844371
0,0.553345,0.801315,0.039642,0.420773,0.42053,0.844371
0,0.553345,0.801315,0.039642,0.420773,0.42053,0.844371
0,0.659164,0.343002,0.07814,0.261149,0.3191,0.336537
0,0.659164,0.343002,0.07814,0.261149,0.3191,0.336537
0,0.659164,0.343002,0.07814,0.261149,0.3191,0.336537
0,0.659164,0.343002,0.07814,0.261149,0.3191,0.336537
0,0.659164,0.343002,0.07814,0.261149,0.3191,0.336537
0,0.659164,0.343002,0.07814,0.261149,0.3191,0.336537
0,0.659164,0.343002,0.07814,0.261149,0.3191,0.336537
0,0.659164,0.343002,0.07814,0.261149,0.3191,0.336537
0,0.659164,0.343002,0.07814,0.261149,0.3191,0.336537
0,0.659164,0.343002,0.07814,0.261149,0.3191,0.336537
0,0.659164,0.343002,0.07814,0.261149,0.3191,0.336537
0,0.659164,0.343002,0.07814,0.261149,0.3191,0.336537
0,0.659164,0.343002,0.07814,0.261149,0.3191,0.336537
0,0.659164,0.343002,0.07814,0.261149,0.3191,0.336537
0,0.659164,0.343002,0.07814,0.261149,0.3191,0.336537
0,0.659164,0.343002,0.07814,0.261149,0.3191,0.336537
0,0.659164,0.343002,0.07814,0.261149,0.3191,0.336537
0,0.659164,0.343002,0.07814,0.261149,0.3191,0.336537
0,0.659164,0.343002,0.07814,0.261149,0.3191,0.336537
0,0.982132,0.612411,0.142136,0.215994,1.700364,1.199081
0,0.982132,0.612411,0.142136,0.215994,1.700364,1.199081
0,0.982132,0.612411,0.142136,0.215994,1.700364,1.199081
0,0.982132,0.612411,0.142136,0.215994,1.700364,1.199081
0,0.982132,0.612411,0.142136,0.215994,1.700364,1.199081
0,0.982132,0.612411,0.142136,0.215994,1.700364,1.199081
0,0.982132,0.612411,0.142136,0.215994,1.700364,1.199081
0,0.982132,0.612411,0.142136,0.215994,1.700364,1.199081
0,0.982132,0.612411,0.142136,0.215994,1.700364,1.199081
0,0.982132,0.612411,0.142136,0.215994,1.700364,1.199081
0,0.982132,0.612411,0.142136,0.215994,1.700364,1.199081
0,0.982132,0.612411,0.142136,0.215994,1.700364,1.199081
0,0.982132,0.612411,0.142136,0.215994,1.700364,1.199081
0,0.982132,0.612411,0.142136,0.215994,1.700364,1.199081
0,0.982132,0.612411,0.142136,0.215994,1.700364,1.199081
0,0.982132,0.612411,0.142136,0.215994,1.700364,1.199081
0,0.982132,0.612411,0.142136,0.215994,1.700364,1.199081
0,0.982132,0.612411,0.142136,0.215994,1.700364,1.199081
0,0.214127,0.882614,0.000061,0.123326,3.546124,0.910692
0,0.214127,0.882614,0.000061,0.123326,3.546124,0.910692
0,0.214127,0.882614,0.000061,0.123326,3.546124,0.910692
0,0.214127,0.882614,0.000061,0.123326,3.546124,0.910692
0,0.214127,0.882614,0.000061,0.123326,3.546124,0.910692
0,0.214127,0.882614,0.000061,0.123326,3.546124,0.910692
0,0.214127,0.882614,0.000061,0.123326,3.546124,0.910692
0,0.214127,0.882614,0.000061,0.123326,3.546124,0.910692
0,0.214127,0.882614,0.000061,0.123326,3.546124,0.910692
0,0.214127,0.882614,0.000061,0.123326,3.546124,0.910692
0,0.214127,0.882614,0.000061,0.123326,3.546124,0.910692
0,0.214127,0.882614,0.000061,0.123326,3.546124,0.910692
0,0.214127,0.882614,0.000061,0.123326,3.546124,0.910692
0,0.214127,0.882614,0.000061,0.123326,3.546124,0.910692
0,0.214127,0.882614,0.000061,0.123326,3.546124,0.910692
0,0.214127,0.882614,0.000061,0.123326,3.546124,0.910692
0,0.214127,0.882614,0.000061,0.123326,3.546124,0.910692
0,0.214127,0.882614,0.000061,0.123326,3.546124,0.910692
0,0.214127,0.882614,0.000061,0.123326,3.546124,0.910692
0,0.819168,0.269211,0.181015,0.258319,0.634624,0.992302
0,0.819168,0.269211,0.181015,0.258319,0.634624,0.992302
0,0.819168,0.269211,0.181015,0.258319,0.634624,0.992302
0,0.819168,0.269211,0.181015,0.258319,0.634624,0.992302
0,0.819168,0.269211,0.181015,0.258319,0.634624,0.992302
0,0.819168,0.269211,0.181015,0.258319,0.634624,0.992302
0,0.819168,0.269211,0.181015,0.258319,0.634624,0.992302
0,0.819168,0.269211,0.181015,0.258319,0.634624,0.992302
0,0.819168,0.269211,0.181015,0.258319,0.634624,0.992302
0,0.819168,0.269211,0.181015,0.258319,0.634624,0.992302
0,0.819168,0.269211,0.181015,0.258319,0.634624,0.992302
0,0.819168,0.269211,0.181015,0.258319,0.634624,0.992302
0,0.819168,0.269211,0.181015,0.258319,0.634624,0.992302
0,0.819168,0.269211,0.181015,0.258319,0.634624,0.992302
0,0.819168,0.269211,0.181015,0.258319,0.634624,0.992302
0,0.819168,0.269211,0.181015,0.258319,0.634624,0.992302
0,0.819168,0.269211,0.181015,0.258319,0.634624,0.992302
0,0.819168,0.269211,0.181015,0.258319,0.634624,0.992302
0,0.819168,0.269211,0.181015,0.258319,0.634624,0.992302
0,0.85675,0.253723,0.377762,1.239558,0.078374,0.553775
0,0.85675,0.253723,0.377762,1.239558,0.078374,0.553775
0,0.85675,0.253723,0.377762,1.239558,0.078374,0.553775
0,0.85675,0.253723,0.377762,1.239558,0.078374,0.553775
0,0.85675,0.253723,0.377762,1.239558,0.078374,0.553775
0,0.85675,0.253723,0.377762,1.239558,0.078374,0.553775
0,0.85675,0.253723,0.377762,1.239558,0.078374,0.553775
0,0.85675,0.253723,0.377762,1.239558,0.078374,0.553775
0,0.85675,0.253723,0.377762,1.239558,0.078374,0.553775
0,0.85675,0.253723,0.377762,1.239558,0.078374,0.553775
0,0.85675,0.253723,0.377762,1.239558,0.078374,0.553775
0,0.85675,0.253723,0.377762,1.239558,0.078374,0.553775
0,0.85675,0.253723,0.377762,1.239558,0.078374,0.553775
0,0.85675,0.253723,0.377762,1.239558,0.078374,0.553775
0,0.85675,0.253723,0.377762,1.239558,0.078374,0.553775
0,0.85675,0.253723,0.377762,1.239558,0.078374,0.553775
0,0.85675,0.253723,0.377762,1.239558,0.078374,0.553775
0,0.85675,0.253723,0.377762,1.239558,0.078374,0.553775
0,1.001465,0.470001,0.669083,1.156818,1.629589,0.732811
0,1.001465,0.470001,0.669083,1.156818,1.629589,0.732811
0,1.001465,0.470001,0.669083,1.156818,1.629589,0.732811
0,1.001465,0.470001,0.669083,1.156818,1.629589,0.732811
0,1.001465,0.470001,0.669083,1.156818,1.629589,0.732811
0,1.001465,0.470001,0.669083,1.156818,1.629589,0.732811
0,1.001465,0.470001,0.669083,1.156818,1.629589,0.732811
0,1.001465,0.470001,0.669083,1.156818,1.629589,0.732811
0,1.001465,0.470001,0.669083,1.156818,1.629589,0.732811
0,1.001465,0.470001,0.669083,1.156818,1.629589,0.732811
0,1.001465,0.470001,0.669083,1.156818,1.629589,0.732811
0,1.001465,0.470001,0.669083,1.156818,1.629589,0.732811
0,1.001465,0.470001,0.669083,1.156818,1.629589,0.732811
0,1.001465,0.470001,0.669083,1.156818,1.629589,0.732811
0,1.001465,0.470001,0.669083,1.156818,1.629589,0.732811
0,1.001465,0.470001,0.669083,1.156818,1.629589,0.732811
0,1.001465,0.470001,0.669083,1.156818,1.629589,0.732811
0,1.001465,0.470001,0.669083,1.156818,1.629589,0.732811
0,1.001465,0.470001,0.669083,1.156818,1.629589,0.732811
0,0.717056,0.291138,0.279449,0.043772,0.33554,0.619595
0,0.717056,0.291138,0.279449,0.043772,0.33554,0.619595
0,0.717056,0.291138,0.279449,0.043772,0.33554,0.619595
0,0.717056,0.291138,0.279449,0.043772,0.33554,0.619595
0,0.717056,0.291138,0.279449,0.043772,0.33554,0.619595
0,0.717056,0.291138,0.279449,0.043772,0.33554,0.619595
0,0.717056,0.291138,0.279449,0.043772,0.33554,0.619595
0,0.717056,0.291138,0.279449,0.043772,0.33554,0.619595
0,0.717056,0.291138,0.279449,0.043772,0.33554,0.619595
0,0.717056,0.291138,0.279449,0.043772,0.33554,0.619595
0,0.717056,0.291138,0.279449,0.043772,0.33554,0.619595
0,0.717056,0.291138,0.279449,0.043772,0.33554,0.619595
0,0.717056,0.291138,0.279449,0.043772,0.33554,0.619595
0,0.717056,0.291138,0.279449,0.043772,0.33554,0.619595
0,0.717056,0.291138,0.279449,0.043772,0.33554,0.619595
0,0.717056,0.291138,0.279449,0.043772,0.33554,0.619595
0,0.717056,0.291138,0.279449,0.043772,0.33554,0.619595
0,0.717056,0.291138,0.279449,0.043772,0.33554,0.619595
0,0.717056,0.291138,0.279449,0.043772,0.33554,0.619595
0,0.717056,0.291138,0.279449,0.043772,0.33554,0.619595
0,0.717056,0.291138,0.279449,0.043772,0.33554,0.619595
0,0.717056,0.291138,0.279449,0.043772,0.33554,0.619595
0,0.717056,0.291138,0.279449,0.043772,0.33554,0.619595
0,0.717056,0.291138,0.279449,0.043772,0.33554,0.619595
0,0.717056,0.291138,0.279449,0.043772,0.33554,0.619595
0,0.717056,0.291138,0.279449,0.043772,0.33554,0.619595
0,0.717056,0.291138,0.279449,0.043772,0.33554,0.619595
0,0.717056,0.291138,0.279449,0.043772,0.33554,0.619595
0,0.717056,0.291138,0.279449,0.043772,0.33554,0.619595
0,0.717056,0.291138,0.279449,0.043772,0.33554,0.619595
0,0.717056,0.291138,0.279449,0.043772,0.33554,0.619595
0,0.194519,1.093063,0.224747,0.043772,0.33554,0.619595
0,0.194519,1.093063,0.224747,0.043772,0.33554,0.619595
0,0.194519,1.093063,0.224747,0.043772,0.33554,0.619595
0,0.194519,1.093063,0.224747,0.043772,0.33554,0.619595
0,0.194519,1.093063,0.224747,1.05211,0.353815,2.752979
0,0.194519,1.093063,0.224747,1.05211,0.353815,2.752979
0,0.194519,1.093063,0.224747,1.05211,0.353815,2.752979
0,0.194519,1.093063,0.224747,1.05211,0.353815,2.752979
0,0.194519,1.093063,0.224747,1.05211,0.353815,2.752979
0,0.194519,1.093063,0.224747,1.05211,0.353815,2.752979
0,0.194519,1.093063,0.224747,1.05211,0.353815,2.752979
0,0.194519,1.093063,0.224747,1.05211,0.353815,2.752979
0,0.194519,1.093063,0.224747,1.05211,0.353815,2.752979
0,0.194519,1.093063,0.224747,1.05211,0.353815,2.752979
0,0.194519,1.093063,0.224747,1.05211,0.353815,2.752979
0,0.194519,1.093063,0.224747,1.05211,0.353815,2.752979
0,0.194519,1.093063,0.224747,1.05211,0.353815,2.752979
0,0.194519,1.093063,0.224747,1.05211,0.353815,2.752979
0,0.194519,1.093063,0.224747,1.05211,0.353815,2.752979
0,0.194519,1.093063,0.224747,1.05211,0.353815,2.752979
0,0.544891,1.145126,0.436356,1.05211,0.353815,2.752979
0,0.544891,1.145126,0.436356,1.05211,0.353815,2.752979
0,0.544891,1.145126,0.436356,1.141881,0.458905,2.433584
0,0.544891,1.145126,0.436356,1.141881,0.458905,2.433584
0,0.544891,1.145126,0.436356,1.141881,0.458905,2.433584
0,0.544891,1.145126,0.436356,1.141881,0.458905,2.433584
0,0.544891,1.145126,0.436356,1.141881,0.458905,2.433584
0,0.544891,1.145126,0.436356,1.141881,0.458905,2.433584
0,0.544891,1.145126,0.436356,1.141881,0.458905,2.433584
0,0.544891,1.145126,0.436356,1.141881,0.458905,2.433584
0,0.544891,1.145126,0.436356,1.141881,0.458905,2.433584
0,0.544891,1.145126,0.436356,1.141881,0.458905,2.433584
0,0.544891,1.145126,0.436356,1.141881,0.458905,2.433584
0,0.544891,1.145126,0.436356,1.141881,0.458905,2.433584
0,0.544891,1.145126,0.436356,1.141881,0.458905,2.433584
0,0.544891,1.145126,0.436356,1.141881,0.458905,2.433584
0,0.544891,1.145126,0.436356,1.141881,0.458905,2.433584
0,0.544891,1.145126,0.436356,1.141881,0.458905,2.433584
0,0.544891,1.145126,0.436356,1.141881,0.458905,2.433584
0,0.544891,1.145126,0.436356,1.141881,0.458905,2.433584
0,0.52562,0.708908,0.505981,1.141881,0.458905,2.433584
0,0.52562,0.708908,0.505981,0.435158,0.614007,0.504812
0,0.52562,0.708908,0.505981,0.435158,0.614007,0.504812
0,0.52562,0.708908,0.505981,0.435158,0.614007,0.504812
0,0.52562,0.708908,0.505981,0.435158,0.614007,0.504812
0,0.52562,0.708908,0.505981,0.435158,0.614007,0.504812
0,0.52562,0.708908,0.505981,0.435158,0.614007,0.504812
0,0.52562,0.708908,0.505981,0.435158,0.614007,0.504812
0,0.52562,0.708908,0.505981,0.435158,0.614007,0.504812
0,0.52562,0.708908,0.505981,0.435158,0.614007,0.504812
0,0.52562,0.708908,0.505981,0.435158,0.614007,0.504812
0,0.52562,0.708908,0.505981,0.435158,0.614007,0.504812
0,0.52562,0.708908,0.505981,0.435158,0.614007,0.504812
0,0.52562,0.708908,0.505981,0.435158,0.614007,0.504812
0,0.52562,0.708908,0.505981,0.435158,0.614007,0.504812
0,0.52562,0.708908,0.505981,0.435158,0.614007,0.504812
0,0.52562,0.708908,0.505981,0.435158,0.614007,0.504812
0,0.52562,0.708908,0.505981,0.435158,0.614007,0.504812
0,0.52562,0.708908,0.505981,0.435158,0.614007,0.504812
0,0.52562,0.708908,0.505981,0.232206,0.135099,0.675033
0,0.56517,1.204498,0.446915,0.232206,0.135099,0.675033
0,0.56517,1.204498,0.446915,0.232206,0.135099,0.675033
0,0.56517,1.204498,0.446915,0.232206,0.135099,0.675033
0,0.56517,1.204498,0.446915,0.232206,0.135099,0.675033
0,0.56517,1.204498,0.446915,0.232206,0.135099,0.675033
0,0.56517,1.204498,0.446915,0.232206,0.135099,0.675033
0,0.56517,1.204498,0.446915,0.232206,0.135099,0.675033
0,0.56517,1.204498,0.446915,0.232206,0.135099,0.675033
0,0.56517,1.204498,0.446915,0.232206,0.135099,0.675033
0,0.56517,1.204498,0.446915,0.232206,0.135099,0.675033
0,0.56517,1.204498,0.446915,0.232206,0.135099,0.675033
0,0.56517,1.204498,0.446915,0.232206,0.135099,0.675033
0,0.56517,1.204498,0.446915,0.232206,0.135099,0.675033
0,0.56517,1.204498,0.446915,0.232206,0.135099,0.675033
0,0.56517,1.204498,0.446915,0.232206,0.135099,0.675033
0,0.56517,1.204498,0.446915,0.232206,0.135099,0.675033
0,0.56517,1.204498,0.446915,0.232206,0.135099,0.675033
0,0.56517,1.204498,0.446915,0.232206,0.135099,0.675033
0,0.56517,1.204498,0.446915,1.32597,0.007305,2.220959
0,0.56517,1.204498,0.446915,1.32597,0.007305,2.220959
0,0.515747,1.193558,0.287552,1.32597,0.007305,2.220959
0,0.515747,1.193558,0.287552,1.32597,0.007305,2.220959
0,0.515747,1.193558,0.287552,1.32597,0.007305,2.220959
0,0.515747,1.193558,0.287552,1.32597,0.007305,2.220959
0,0.515747,1.193558,0.287552,1.32597,0.007305,2.220959
0,0.515747,1.193558,0.287552,1.32597,0.007305,2.220959
0,0.515747,1.193558,0.287552,1.32597,0.007305,2.220959
0,0.515747,1.193558,0.287552,1.32597,0.007305,2.220959
0,0.515747,1.193558,0.287552,1.32597,0.007305,2.220959
0,0.515747,1.193558,0.287552,1.32597,0.007305,2.220959
0,0.515747,1.193558,0.287552,1.32597,0.007305,2.220959
0,0.515747,1.193558,0.287552,1.32597,0.007305,2.220959
0,0.515747,1.193558,0.287552,1.32597,0.007305,2.220959
0,0.515747,1.193558,0.287552,1.32597,0.007305,2.220959
0,0.515747,1.193558,0.287552,1.32597,0.007305,2.220959
0,0.515747,1.193558,0.287552,1.32597,0.007305,2.220959
0,0.515747,1.193558,0.287552,0.88169,0.045635,2.153566
0,0.515747,1.193558,0.287552,0.88169,0.045635,2.153566
0,0.515747,1.193558,0.287552,0.88169,0.045635,2.153566
0,0.515747,1.193558,0.287552,0.88169,0.045635,2.153566
0,0.191925,0.852844,0.148346,0.88169,0.045635,2.153566
0,0.191925,0.852844,0.148346,0.88169,0.045635,2.153566
0,0.191925,0.852844,0.148346,0.88169,0.045635,2.153566
0,0.191925,0.852844,0.148346,0.88169,0.045635,2.153566
0,0.191925,0.852844,0.148346,0.88169,0.045635,2.153566
0,0.191925,0.852844,0.148346,0.88169,0.045635,2.153566
0,0.191925,0.852844,0.148346,0.88169,0.045635,2.153566
0,0.191925,0.852844,0.148346,0.88169,0.045635,2.153566
0,0.191925,0.852844,0.148346,0.88169,0.045635,2.153566
0,0.191925,0.852844,0.148346,0.88169,0.045635,2.153566
0,0.191925,0.852844,0.148346,0.88169,0.045635,2.153566
0,0.191925,0.852844,0.148346,0.88169,0.045635,2.153566
0,0.191925,0.852844,0.148346,0.88169,0.045635,2.153566
0,0.191925,0.852844,0.148346,0.88169,0.045635,2.153566
0,0.191925,0.852844,0.148346,0.88169,0.045635,2.153566
0,0.191925,0.852844,0.148346,0.318019,0.21598,0.718442
0,0.191925,0.852844,0.148346,0.318019,0.21598,0.718442
0,0.191925,0.852844,0.148346,0.318019,0.21598,0.718442
0,0.191925,0.852844,0.148346,0.318019,0.21598,0.718442
0,0.191925,0.852844,0.148346,0.318019,0.21598,0.718442
0,0.101776,0.940811,0.279007,0.318019,0.21598,0.718442
0,0.101776,0.940811,0.279007,0.318019,0.21598,0.718442
0,0.101776,0.940811,0.279007,0.318019,0.21598,0.718442
0,0.101776,0.940811,0.279007,0.318019,0.21598,0.718442
0,0.101776,0.940811,0.279007,0.318019,0.21598,0.718442
0,0.101776,0.940811,0.279007,0.318019,0.21598,0.718442
0,0.101776,0.940811,0.279007,0.318019,0.21598,0.718442
0,0.101776,0.940811,0.279007,0.318019,0.21598,0.718442
0,0.101776,0.940811,0.279007,0.318019,0.21598,0.718442
0,0.101776,0.940811,0.279007,0.318019,0.21598,0.718442
0,0.101776,0.940811,0.279007,0.318019,0.21598,0.718442
0,0.101776,0.940811,0.279007,0.318019,0.21598,0.718442
0,0.101776,0.940811,0.279007,0.318019,0.21598,0.718442
0,0.101776,0.940811,0.279007,1.321967,0.612374,4.153041
0,0.101776,0.940811,0.279007,1.321967,0.612374,4.153041
0,0.101776,0.940811,0.279007,1.321967,0.612374,4.153041
0,0.101776,0.940811,0.279007,1.321967,0.612374,4.153041
0,0.101776,0.940811,0.279007,1.321967,0.612374,4.153041
0,0.101776,0.940811,0.279007,1.321967,0.612374,4.153041
0,0.101776,0.940811,0.279007,1.321967,0.612374,4.153041
0,0.101776,0.940811,0.279007,1.321967,0.612374,4.153041
0,0.665405,1.384918,0.593414,1.321967,0.612374,4.153041
0,0.665405,1.384918,0.593414,1.321967,0.612374,4.153041
0,0.665405,1.384918,0.593414,1.321967,0.612374,4.153041
0,0.665405,1.384918,0.593414,1.321967,0.612374,4.153041
0,0.665405,1.384918,0.593414,1.321967,0.612374,4.153041
0,0.665405,1.384918,0.593414,1.321967,0.612374,4.153041
0,0.665405,1.384918,0.593414,1.321967,0.612374,4.153041
0,0.665405,1.384918,0.593414,1.321967,0.612374,4.153041
0,0.665405,1.384918,0.593414,1.321967,0.612374,4.153041
0,0.665405,1.384918,0.593414,1.321967,0.612374,4.153041
0,0.665405,1.384918,0.593414,1.321967,0.612374,4.153041
0,0.665405,1.384918,0.593414,0.480791,1.916281,0.593359
0,0.665405,1.384918,0.593414,0.480791,1.916281,0.593359
0,0.665405,1.384918,0.593414,0.480791,1.916281,0.593359
0,0.665405,1.384918,0.593414,0.480791,1.916281,0.593359
0,0.665405,1.384918,0.593414,0.480791,1.916281,0.593359
0,0.665405,1.384918,0.593414,0.480791,1.916281,0.593359
0,0.665405,1.384918,0.593414,0.480791,1.916281,0.593359
0,0.665405,1.384918,0.593414,0.480791,1.916281,0.593359
0,0.665405,1.384918,0.593414,0.480791,1.916281,0.593359
0,0.424698,0.56012,0.377899,0.480791,1.916281,0.593359
0,0.424698,0.56012,0.377899,0.480791,1.916281,0.593359
0,0.424698,0.56012,0.377899,0.480791,1.916281,0.593359
0,0.424698,0.56012,0.377899,0.480791,1.916281,0.593359
0,0.424698,0.56012,0.377899,0.480791,1.916281,0.593359
0,0.424698,0.56012,0.377899,0.480791,1.916281,0.593359
0,0.424698,0.56012,0.377899,0.480791,1.916281,0.593359
0,0.424698,0.56012,0.377899,0.480791,1.916281,0.593359
0,0.424698,0.56012,0.377899,0.480791,1.916281,0.593359
0,0.424698,0.56012,0.377899,0.329528,0.25225,0.44791
0,0.424698,0.56012,0.377899,0.329528,0.25225,0.44791
0,0.424698,0.56012,0.377899,0.329528,0.25225,0.44791
0,0.424698,0.56012,0.377899,0.329528,0.25225,0.44791
0,0.424698,0.56012,0.377899,0.329528,0.25225,0.44791
0,0.424698,0.56012,0.377899,0.329528,0.25225,0.44791
0,0.424698,0.56012,0.377899,0.329528,0.25225,0.44791
0,0.424698,0.56012,0.377899,0.329528,0.25225,0.44791
0,0.424698,0.56012,0.377899,0.329528,0.25225,0.44791
0,0.424698,0.56012,0.377899,0.329528,0.25225,0.44791
0,0.424698,0.56012,0.377899,0.329528,0.25225,0.44791
0,0.67775,1.013092,0.52977,0.329528,0.25225,0.44791
0,0.67775,1.013092,0.52977,0.329528,0.25225,0.44791
0,0.67775,1.013092,0.52977,0.329528,0.25225,0.44791
0,0.67775,1.013092,0.52977,0.329528,0.25225,0.44791
0,0.67775,1.013092,0.52977,0.329528,0.25225,0.44791
0,0.67775,1.013092,0.52977,0.329528,0.25225,0.44791
0,0.67775,1.013092,0.52977,0.329528,0.25225,0.44791
0,0.67775,1.013092,0.52977,0.329528,0.25225,0.44791
0,0.67775,1.013092,0.52977,0.964996,0.493343,2.038124
0,0.67775,1.013092,0.52977,0.964996,0.493343,2.038124
0,0.67775,1.013092,0.52977,0.964996,0.493343,2.038124
0,0.67775,1.013092,0.52977,0.964996,0.493343,2.038124
0,0.67775,1.013092,0.52977,0.964996,0.493343,2.038124
0,0.67775,1.013092,0.52977,0.964996,0.493343,2.038124
0,0.67775,1.013092,0.52977,0.964996,0.493343,2.038124
0,0.67775,1.013092,0.52977,0.964996,0.493343,2.038124
0,0.67775,1.013092,0.52977,0.964996,0.493343,2.038124
0,0.67775,1.013092,0.52977,0.964996,0.493343,2.038124
0,0.67775,1.013092,0.52977,0.964996,0.493343,2.038124
0,0.67775,1.013092,0.52977,0.964996,0.493343,2.038124
0,0.404388,1.390915,0.345322,0.964996,0.493343,2.038124
0,0.404388,1.390915,0.345322,0.964996,0.493343,2.038124
0,0.404388,1.390915,0.345322,0.964996,0.493343,2.038124
0,0.404388,1.390915,0.345322,0.964996,0.493343,2.038124
0,0.404388,1.390915,0.345322,0.964996,0.493343,2.038124
0,0.404388,1.390915,0.345322,0.964996,0.493343,2.038124
0,0.404388,1.390915,0.345322,0.964996,0.493343,2.038124
0,0.404388,1.390915,0.345322,1.162165,0.193734,2.838937
0,0.404388,1.390915,0.345322,1.162165,0.193734,2.838937
0,0.404388,1.390915,0.345322,1.162165,0.193734,2.838937
0,0.404388,1.390915,0.345322,1.162165,0.193734,2.838937
0,0.404388,1.390915,0.345322,1.162165,0.193734,2.838937
0,0.404388,1.390915,0.345322,1.162165,0.193734,2.838937
0,0.404388,1.390915,0.345322,1.162165,0.193734,2.838937
0,0.404388,1.390915,0.345322,1.162165,0.193734,2.838937
0,0.404388,1.390915,0.345322,1.162165,0.193734,2.838937
0,0.404388,1.390915,0.345322,1.162165,0.193734,2.838937
0,0.404388,1.390915,0.345322,1.162165,0.193734,2.838937
0,0.404388,1.390915,0.345322,1.162165,0.193734,2.838937
0,0.404388,1.390915,0.345322,1.162165,0.193734,2.838937
0,0.136978,0.697586,0.072357,1.162165,0.193734,2.838937
0,0.136978,0.697586,0.072357,1.162165,0.193734,2.838937
0,0.136978,0.697586,0.072357,1.162165,0.193734,2.838937
0,0.136978,0.697586,0.072357,1.162165,0.193734,2.838937
0,0.136978,0.697586,0.072357,1.162165,0.193734,2.838937
0,0.136978,0.697586,0.072357,0.436092,0.109624,0.632951
0,0.136978,0.697586,0.072357,0.436092,0.109624,0.632951
0,0.136978,0.697586,0.072357,0.436092,0.109624,0.632951
0,0.136978,0.697586,0.072357,0.436092,0.109624,0.632951
0,0.136978,0.697586,0.072357,0.436092,0.109624,0.632951
0,0.136978,0.697586,0.072357,0.436092,0.109624,0.632951
0,0.136978,0.697586,0.072357,0.436092,0.109624,0.632951
0,0.136978,0.697586,0.072357,0.436092,0.109624,0.632951
0,0.136978,0.697586,0.072357,0.436092,0.109624,0.632951
0,0.136978,0.697586,0.072357,0.436092,0.109624,0.632951
0,0.136978,0.697586,0.072357,0.436092,0.109624,0.632951
0,0.136978,0.697586,0.072357,0.436092,0.109624,0.632951
0,0.136978,0.697586,0.072357,0.436092,0.109624,0.632951
0,0.136978,0.697586,0.072357,0.436092,0.109624,0.632951
0,0.136978,0.697586,0.072357,0.436092,0.109624,0.632951
0,0.23259,1.299271,0.316437,0.436092,0.109624,0.632951
0,0.23259,1.299271,0.316437,0.436092,0.109624,0.632951
0,0.23259,1.299271,0.316437,0.436092,0.109624,0.632951
0,0.23259,1.299271,0.316437,0.436092,0.109624,0.632951
0,0.23259,1.299271,0.316437,0.509139,0.372602,3.971779
0,0.23259,1.299271,0.316437,0.509139,0.372602,3.971779
0,0.23259,1.299271,0.316437,0.509139,0.372602,3.971779
0,0.23259,1.299271,0.316437,0.509139,0.372602,3.971779
0,0.23259,1.299271,0.316437,0.509139,0.372602,3.971779
0,0.23259,1.299271,0.316437,0.509139,0.372602,3.971779
0,0.23259,1.299271,0.316437,0.509139,0.372602,3.971779
0,0.23259,1.299271,0.316437,0.509139,0.372602,3.971779
0,0.23259,1.299271,0.316437,0.509139,0.372602,3.971779
0,0.23259,1.299271,0.316437,0.509139,0.372602,3.971779
0,0.23259,1.299271,0.316437,0.509139,0.372602,3.971779
0,0.23259,1.299271,0.316437,0.509139,0.372602,3.971779
0,0.23259,1.299271,0.316437,0.509139,0.372602,3.971779
0,0.23259,1.299271,0.316437,0.509139,0.372602,3.971779
0,0.23259,1.299271,0.316437,0.509139,0.372602,3.971779
0,0.23259,1.299271,0.316437,0.509139,0.372602,3.971779
0,0.733627,1.20192,0.420105,0.509139,0.372602,3.971779
0,0.733627,1.20192,0.420105,0.509139,0.372602,3.971779
0,0.733627,1.20192,0.420105,1.242041,0.131156,2.018644
0,0.733627,1.20192,0.420105,1.242041,0.131156,2.018644
0,0.733627,1.20192,0.420105,1.242041,0.131156,2.018644
0,0.733627,1.20192,0.420105,1.242041,0.131156,2.018644
0,0.733627,1.20192,0.420105,1.242041,0.131156,2.018644
0,0.733627,1.20192,0.420105,1.242041,0.131156,2.018644
0,0.733627,1.20192,0.420105,1.242041,0.131156,2.018644
0,0.733627,1.20192,0.420105,1.242041,0.131156,2.018644
0,0.733627,1.20192,0.420105,1.242041,0.131156,2.018644
0,0.733627,1.20192,0.420105,1.242041,0.131156,2.018644
0,0.733627,1.20192,0.420105,1.242041,0.131156,2.018644
0,0.733627,1.20192,0.420105,1.242041,0.131156,2.018644
0,0.733627,1.20192,0.420105,1.242041,0.131156,2.018644
0,0.733627,1.20192,0.420105,1.242041,0.131156,2.018644
0,0.733627,1.20192,0.420105,1.242041,0.131156,2.018644
0,0.733627,1.20192,0.420105,1.242041,0.131156,2.018644
0,0.733627,1.20192,0.420105,1.242041,0.131156,2.018644
0,0.733627,1.20192,0.420105,1.242041,0.131156,2.018644
0,0.733627,1.20192,0.420105,1.242041,0.131156,2.018644
0,0.50206,0.674301,0.460419,0.268338,0.37349,0.538484
0,0.50206,0.674301,0.460419,0.268338,0.37349,0.538484
0,0.50206,0.674301,0.460419,0.268338,0.37349,0.538484
0,0.50206,0.674301,0.460419,0.268338,0.37349,0.538484
0,0.50206,0.674301,0.460419,0.268338,0.37349,0.538484
0,0.50206,0.674301,0.460419,0.268338,0.37349,0.538484
0,0.50206,0.674301,0.460419,0.268338,0.37349,0.538484
0,0.50206,0.674301,0.460419,0.268338,0.37349,0.538484
0,0.50206,0.674301,0.460419,0.268338,0.37349,0.538484
0,0.50206,0.674301,0.460419,0.268338,0.37349,0.538484
0,0.50206,0.674301,0.460419,0.268338,0.37349,0.538484
0,0.50206,0.674301,0.460419,0.268338,0.37349,0.538484
0,0.50206,0.674301,0.460419,0.268338,0.37349,0.538484
0,0.50206,0.674301,0.460419,0.268338,0.37349,0.538484
0,0.50206,0.674301,0.460419,0.268338,0.37349,0.538484
0,0.50206,0.674301,0.460419,0.268338,0.37349,0.538484
0,0.50206,0.674301,0.460419,0.268338,0.37349,0.538484
0,0.50206,0.674301,0.460419,0.268338,0.37349,0.538484
0,0.50206,0.674301,0.460419,0.195165,0.069767,1.203982
0,0.50206,0.674301,0.460419,0.195165,0.069767,1.203982
0,0.45816,0.992081,0.435547,0.195165,0.069767,1.203982
0,0.45816,0.992081,0.435547,0.195165,0.069767,1.203982
0,0.45816,0.992081,0.435547,0.195165,0.069767,1.203982
0,0.45816,0.992081,0.435547,0.195165,0.069767,1.203982
0,0.45816,0.992081,0.435547,0.195165,0.069767,1.203982
0,0.45816,0.992081,0.435547,0.195165,0.069767,1.203982
0,0.45816,0.992081,0.435547,0.195165,0.069767,1.203982
0,0.45816,0.992081,0.435547,0.195165,0.069767,1.203982
0,0.45816,0.992081,0.435547,0.195165,0.069767,1.203982
0,0.45816,0.992081,0.435547,0.195165,0.069767,1.203982
0,0.45816,0.992081,0.435547,0.195165,0.069767,1.203982
0,0.45816,0.992081,0.435547,0.195165,0.069767,1.203982
0,0.45816,0.992081,0.435547,0.195165,0.069767,1.203982
0,0.45816,0.992081,0.435547,0.195165,0.069767,1.203982
0,0.45816,0.992081,0.435547,0.195165,0.069767,1.203982
0,0.45816,0.992081,0.435547,0.195165,0.069767,1.203982
0,0.45816,0.992081,0.435547,0.195165,0.069767,1.203982
0,0.45816,0.992081,0.435547,1.971948,0.217766,2.271478
0,0.45816,0.992081,0.435547,1.971948,0.217766,2.271478
0,0.45816,0.992081,0.435547,1.971948,0.217766,2.271478
0,0.430618,1.333557,0.330124,1.971948,0.217766,2.271478
0,0.430618,1.333557,0.330124,1.971948,0.217766,2.271478
0,0.430618,1.333557,0.330124,1.971948,0.217766,2.271478
0,0.430618,1.333557,0.330124,1.971948,0.217766,2.271478
0,0.430618,1.333557,0.330124,1.971948,0.217766,2.271478
0,0.430618,1.333557,0.330124,1.971948,0.217766,2.271478
0,0.430618,1.333557,0.330124,1.971948,0.217766,2.271478
0,0.430618,1.333557,0.330124,1.971948,0.217766,2.271478
0,0.430618,1.333557,0.330124,1.971948,0.217766,2.271478
0,0.430618,1.333557,0.330124,1.971948,0.217766,2.271478
0,0.430618,1.333557,0.330124,1.971948,0.217766,2.271478
0,0.430618,1.333557,0.330124,1.971948,0.217766,2.271478
0,0.430618,1.333557,0.330124,1.971948,0.217766,2.271478
0,0.430618,1.333557,0.330124,1.971948,0.217766,2.271478
0,0.430618,1.333557,0.330124,1.971948,0.217766,2.271478
0,0.430618,1.333557,0.330124,0.721846,0.334119,2.150492
0,0.430618,1.333557,0.330124,0.721846,0.334119,2.150492
0,0.430618,1.333557,0.330124,0.721846,0.334119,2.150492
0,0.430618,1.333557,0.330124,0.721846,0.334119,2.150492
0,0.430618,1.333557,0.330124,0.721846,0.334119,2.150492
0,0.146561,0.702927,0.071411,0.721846,0.334119,2.150492
0,0.146561,0.702927,0.071411,0.721846,0.334119,2.150492
0,0.146561,0.702927,0.071411,0.721846,0.334119,2.150492
0,0.146561,0.702927,0.071411,0.721846,0.334119,2.150492
0,0.146561,0.702927,0.071411,0.721846,0.334119,2.150492
0,0.146561,0.702927,0.071411,0.721846,0.334119,2.150492
0,0.146561,0.702927,0.071411,0.721846,0.334119,2.150492
0,0.146561,0.702927,0.071411,0.721846,0.334119,2.150492
0,0.146561,0.702927,0.071411,0.721846,0.334119,2.150492
0,0.146561,0.702927,0.071411,0.721846,0.334119,2.150492
0,0.146561,0.702927,0.071411,0.721846,0.334119,2.150492
0,0.146561,0.702927,0.071411,0.721846,0.334119,2.150492
0,0.146561,0.702927,0.071411,0.721846,0.334119,2.150492
0,0.146561,0.702927,0.071411,0.721846,0.334119,2.150492
0,0.146561,0.702927,0.071411,0.161251,1.525406,1.747825
0,0.146561,0.702927,0.071411,0.161251,1.525406,1.747825
0,0.146561,0.702927,0.071411,0.161251,1.525406,1.747825
0,0.146561,0.702927,0.071411,0.161251,1.525406,1.747825
0,0.146561,0.702927,0.071411,0.161251,1.525406,1.747825
0,0.146561,0.702927,0.071411,0.161251,1.525406,1.747825
0,0.157516,1.168472,0.438721,0.161251,1.525406,1.747825
0,0.157516,1.168472,0.438721,0.161251,1.525406,1.747825
0,0.157516,1.168472,0.438721,0.161251,1.525406,1.747825
0,0.157516,1.168472,0.438721,0.161251,1.525406,1.747825
0,0.157516,1.168472,0.438721,0.161251,1.525406,1.747825
0,0.157516,1.168472,0.438721,0.161251,1.525406,1.747825
0,0.157516,1.168472,0.438721,0.161251,1.525406,1.747825
0,0.157516,1.168472,0.438721,0.161251,1.525406,1.747825
0,0.157516,1.168472,0.438721,0.161251,1.525406,1.747825
0,0.157516,1.168472,0.438721,0.161251,1.525406,1.747825
0,0.157516,1.168472,0.438721,0.161251,1.525406,1.747825
0,0.157516,1.168472,0.438721,0.161251,1.525406,1.747825
0,0.157516,1.168472,0.438721,0.189157,0.591298,4.255356
0,0.157516,1.168472,0.438721,0.189157,0.591298,4.255356
0,0.157516,1.168472,0.438721,0.189157,0.591298,4.255356
0,0.157516,1.168472,0.438721,0.189157,0.591298,4.255356
0,0.157516,1.168472,0.438721,0.189157,0.591298,4.255356
0,0.157516,1.168472,0.438721,0.189157,0.591298,4.255356
0,0.157516,1.168472,0.438721,0.189157,0.591298,4.255356
0,0.157516,1.168472,0.438721,0.189157,0.591298,4.255356
0,0.157516,1.168472,0.438721,0.189157,0.591298,4.255356
0,0.157516,1.168472,0.438721,0.189157,0.591298,4.255356
0,0.157516,1.168472,0.438721,0.189157,0.591298,4.255356
0,0.157516,1.168472,0.438721,0.189157,0.591298,4.255356
0,0.157516,1.168472,0.438721,0.189157,0.591298,4.255356
0,0.157516,1.168472,0.438721,0.189157,0.591298,4.255356
0,0.157516,1.168472,0.438721,0.189157,0.591298,4.255356
0,0.157516,1.168472,0.438721,0.189157,0.591298,4.255356
0,0.157516,1.168472,0.438721,0.189157,0.591298,4.255356
0,0.684982,0.720718,0.173096,0.189157,0.591298,4.255356
0,0.684982,0.720718,0.173096,0.189157,0.591298,4.255356
0,0.684982,0.720718,0.173096,0.642615,1.2357,0.77919
0,0.684982,0.720718,0.173096,0.642615,1.2357,0.77919
0,0.684982,0.720718,0.173096,0.642615,1.2357,0.77919
0,0.684982,0.720718,0.173096,0.642615,1.2357,0.77919
0,0.684982,0.720718,0.173096,0.642615,1.2357,0.77919
0,0.684982,0.720718,0.173096,0.642615,1.2357,0.77919
0,0.684982,0.720718,0.173096,0.642615,1.2357,0.77919
0,0.684982,0.720718,0.173096,0.642615,1.2357,0.77919
0,0.684982,0.720718,0.173096,0.642615,1.2357,0.77919
0,0.684982,0.720718,0.173096,0.642615,1.2357,0.77919
0,0.684982,0.720718,0.173096,0.642615,1.2357,0.77919
0,0.684982,0.720718,0.173096,0.642615,1.2357,0.77919
0,0.684982,0.720718,0.173096,0.642615,1.2357,0.77919
0,0.684982,0.720718,0.173096,0.642615,1.2357,0.77919
0,0.684982,0.720718,0.173096,0.642615,1.2357,0.77919
0,0.684982,0.720718,0.173096,0.642615,1.2357,0.77919
0,0.655106,0.832474,0.463898,0.642615,1.2357,0.77919
0,0.655106,0.832474,0.463898,0.642615,1.2357,0.77919
0,0.655106,0.832474,0.463898,0.69053,0.131553,0.098393
0,0.655106,0.832474,0.463898,0.69053,0.131553,0.098393
0,0.655106,0.832474,0.463898,0.69053,0.131553,0.098393
0,0.655106,0.832474,0.463898,0.69053,0.131553,0.098393
0,0.655106,0.832474,0.463898,0.69053,0.131553,0.098393
0,0.655106,0.832474,0.463898,0.69053,0.131553,0.098393
0,0.655106,0.832474,0.463898,0.69053,0.131553,0.098393
0,0.655106,0.832474,0.463898,0.69053,0.131553,0.098393
0,0.655106,0.832474,0.463898,0.69053,0.131553,0.098393
0,0.655106,0.832474,0.463898,0.69053,0.131553,0.098393
0,0.655106,0.832474,0.463898,0.69053,0.131553,0.098393
0,0.655106,0.832474,0.463898,0.69053,0.131553,0.098393
0,0.655106,0.832474,0.463898,0.69053,0.131553,0.098393
0,0.655106,0.832474,0.463898,0.69053,0.131553,0.098393
0,0.655106,0.832474,0.463898,0.69053,0.131553,0.098393
0,0.655106,0.832474,0.463898,0.69053,0.131553,0.098393
0,0.655106,0.832474,0.463898,0.69053,0.131553,0.098393
0,0.482437,1.578491,0.754959,0.69053,0.131553,0.098393
0,0.482437,1.578491,0.754959,0.69053,0.131553,0.098393
0,0.482437,1.578491,0.754959,1.059094,1.212437,2.069513
0,0.482437,1.578491,0.754959,1.059094,1.212437,2.069513
0,0.482437,1.578491,0.754959,1.059094,1.212437,2.069513
0,0.482437,1.578491,0.754959,1.059094,1.212437,2.069513
0,0.482437,1.578491,0.754959,1.059094,1.212437,2.069513
0,0.482437,1.578491,0.754959,1.059094,1.212437,2.069513
0,0.482437,1.578491,0.754959,1.059094,1.212437,2.069513
0,0.482437,1.578491,0.754959,1.059094,1.212437,2.069513
0,0.482437,1.578491,0.754959,1.059094,1.212437,2.069513
0,0.482437,1.578491,0.754959,1.059094,1.212437,2.069513
0,0.482437,1.578491,0.754959,1.059094,1.212437,2.069513
0,0.482437,1.578491,0.754959,1.059094,1.212437,2.069513
0,0.482437,1.578491,0.754959,1.059094,1.212437,2.069513
0,0.482437,1.578491,0.754959,1.059094,1.212437,2.069513
0,0.482437,1.578491,0.754959,1.059094,1.212437,2.069513
0,0.482437,1.578491,0.754959,1.059094,1.212437,2.069513
0,0.255966,1.169876,0.182144,1.059094,1.212437,2.069513
0,0.255966,1.169876,0.182144,1.059094,1.212437,2.069513
0,0.255966,1.169876,0.182144,0.884313,0.02971,3.614021
0,0.255966,1.169876,0.182144,0.884313,0.02971,3.614021
0,0.255966,1.169876,0.182144,0.884313,0.02971,3.614021
0,0.255966,1.169876,0.182144,0.884313,0.02971,3.614021
0,0.255966,1.169876,0.182144,0.884313,0.02971,3.614021
0,0.255966,1.169876,0.182144,0.884313,0.02971,3.614021
0,0.255966,1.169876,0.182144,0.884313,0.02971,3.614021
0,0.255966,1.169876,0.182144,0.884313,0.02971,3.614021
0,0.255966,1.169876,0.182144,0.884313,0.02971,3.614021
0,0.255966,1.169876,0.182144,0.884313,0.02971,3.614021
0,0.255966,1.169876,0.182144,0.884313,0.02971,3.614021
0,0.255966,1.169876,0.182144,0.884313,0.02971,3.614021
0,0.255966,1.169876,0.182144,0.884313,0.02971,3.614021
0,0.255966,1.169876,0.182144,0.884313,0.02971,3.614021
0,0.255966,1.169876,0.182144,0.884313,0.02971,3.614021
0,0.255966,1.169876,0.182144,0.884313,0.02971,3.614021
0,0.255966,1.169876,0.182144,0.884313,0.02971,3.614021
0,0.08168,0.729828,0.063141,0.884313,0.02971,3.614021
0,0.08168,0.729828,0.063141,0.884313,0.02971,3.614021
0,0.08168,0.729828,0.063141,0.566136,0.257091,0.586727
0,0.08168,0.729828,0.063141,0.566136,0.257091,0.586727
0,0.08168,0.729828,0.063141,0.566136,0.257091,0.586727
0,0.08168,0.729828,0.063141,0.566136,0.257091,0.586727
0,0.08168,0.729828,0.063141,0.566136,0.257091,0.586727
0,0.08168,0.729828,0.063141,0.566136,0.257091,0.586727
0,0.08168,0.729828,0.063141,0.566136,0.257091,0.586727
0,0.08168,0.729828,0.063141,0.566136,0.257091,0.586727
0,0.08168,0.729828,0.063141,0.566136,0.257091,0.586727
0,0.08168,0.729828,0.063141,0.566136,0.257091,0.586727
0,0.08168,0.729828,0.063141,0.566136,0.257091,0.586727
0,0.08168,0.729828,0.063141,0.566136,0.257091,0.586727
0,0.08168,0.729828,0.063141,0.566136,0.257091,0.586727
0,0.08168,0.729828,0.063141,0.566136,0.257091,0.586727
0,0.08168,0.729828,0.063141,0.566136,0.257091,0.586727
0,0.08168,0.729828,0.063141,0.566136,0.257091,0.586727
0,0.08168,0.729828,0.063141,0.566136,0.257091,0.586727
0,0.312439,1.261536,0.220764,0.566136,0.257091,0.586727
0,0.312439,1.261536,0.220764,0.566136,0.257091,0.586727
0,0.312439,1.261536,0.220764,0.53541,0.04167,4.333068
0,0.312439,1.261536,0.220764,0.53541,0.04167,4.333068
0,0.312439,1.261536,0.220764,0.53541,0.04167,4.333068
0,0.312439,1.261536,0.220764,0.53541,0.04167,4.333068
0,0.312439,1.261536,0.220764,0.53541,0.04167,4.333068
0,0.312439,1.261536,0.220764,0.53541,0.04167,4.333068
0,0.312439,1.261536,0.220764,0.53541,0.04167,4.333068
0,0.312439,1.261536,0.220764,0.53541,0.04167,4.333068
0,0.312439,1.261536,0.220764,0.53541,0.04167,4.333068
0,0.312439,1.261536,0.220764,0.53541,0.04167,4.333068
0,0.312439,1.261536,0.220764,0.53541,0.04167,4.333068
0,0.312439,1.261536,0.220764,0.53541,0.04167,4.333068
0,0.312439,1.261536,0.220764,0.53541,0.04167,4.333068
0,0.312439,1.261536,0.220764,0.53541,0.04167,4.333068
0,0.312439,1.261536,0.220764,0.53541,0.04167,4.333068
0,0.312439,1.261536,0.220764,0.53541,0.04167,4.333068
0,0.861893,1.135208,0.492233,0.53541,0.04167,4.333068
0,0.861893,1.135208,0.492233,0.53541,0.04167,4.333068
0,0.861893,1.135208,0.492233,1.133582,0.212317,2.236598
0,0.861893,1.135208,0.492233,1.133582,0.212317,2.236598
0,0.861893,1.135208,0.492233,1.133582,0.212317,2.236598
0,0.861893,1.135208,0.492233,1.133582,0.212317,2.236598
0,0.861893,1.135208,0.492233,1.133582,0.212317,2.236598
0,0.861893,1.135208,0.492233,1.133582,0.212317,2.236598
0,0.861893,1.135208,0.492233,1.133582,0.212317,2.236598
0,0.861893,1.135208,0.492233,1.133582,0.212317,2.236598
0,0.861893,1.135208,0.492233,1.133582,0.212317,2.236598
0,0.861893,1.135208,0.492233,1.133582,0.212317,2.236598
0,0.861893,1.135208,0.492233,1.133582,0.212317,2.236598
0,0.861893,1.135208,0.492233,1.133582,0.212317,2.236598
0,0.861893,1.135208,0.492233,1.133582,0.212317,2.236598
0,0.861893,1.135208,0.492233,1.133582,0.212317,2.236598
0,0.861893,1.135208,0.492233,1.133582,0.212317,2.236598
0,0.861893,1.135208,0.492233,1.133582,0.212317,2.236598
0,0.861893,1.135208,0.492233,1.133582,0.212317,2.236598
0,0.471329,0.696426,0.337891,1.133582,0.212317,2.236598
0,0.471329,0.696426,0.337891,1.133582,0.212317,2.236598
0,0.471329,0.696426,0.337891,0.31148,1.224476,0.994712
0,0.471329,0.696426,0.337891,0.31148,1.224476,0.994712
0,0.471329,0.696426,0.337891,0.31148,1.224476,0.994712
0,0.471329,0.696426,0.337891,0.31148,1.224476,0.994712
0,0.471329,0.696426,0.337891,0.31148,1.224476,0.994712
0,0.471329,0.696426,0.337891,0.31148,1.224476,0.994712
0,0.471329,0.696426,0.337891,0.31148,1.224476,0.994712
0,0.471329,0.696426,0.337891,0.31148,1.224476,0.994712
0,0.471329,0.696426,0.337891,0.31148,1.224476,0.994712
0,0.471329,0.696426,0.337891,0.31148,1.224476,0.994712
0,0.471329,0.696426,0.337891,0.31148,1.224476,0.994712
0,0.471329,0.696426,0.337891,0.31148,1.224476,0.994712
0,0.471329,0.696426,0.337891,0.31148,1.224476,0.994712
0,0.471329,0.696426,0.337891,0.31148,1.224476,0.994712
0,0.471329,0.696426,0.337891,0.31148,1.224476,0.994712
0,0.471329,0.696426,0.337891,0.31148,1.224476,0.994712
0,0.684616,1.044159,0.660507,0.31148,1.224476,0.994712
0,0.684616,1.044159,0.660507,0.31148,1.224476,0.994712
0,0.684616,1.044159,0.660507,0.381238,1.023982,1.557486
0,0.684616,1.044159,0.660507,0.381238,1.023982,1.557486
0,0.684616,1.044159,0.660507,0.381238,1.023982,1.557486
0,0.684616,1.044159,0.660507,0.381238,1.023982,1.557486
0,0.684616,1.044159,0.660507,0.381238,1.023982,1.557486
0,0.684616,1.044159,0.660507,0.381238,1.023982,1.557486
0,0.684616,1.044159,0.660507,0.381238,1.023982,1.557486
0,0.684616,1.044159,0.660507,0.381238,1.023982,1.557486
0,0.684616,1.044159,0.660507,0.381238,1.023982,1.557486
0,0.684616,1.044159,0.660507,0.381238,1.023982,1.557486
0,0.684616,1.044159,0.660507,0.381238,1.023982,1.557486
0,0.684616,1.044159,0.660507,0.381238,1.023982,1.557486
0,0.684616,1.044159,0.660507,0.381238,1.023982,1.557486
0,0.684616,1.044159,0.660507,0.381238,1.023982,1.557486
0,0.684616,1.044159,0.660507,0.381238,1.023982,1.557486
0,0.684616,1.044159,0.660507,0.381238,1.023982,1.557486
0,0.684616,1.044159,0.660507,0.381238,1.023982,1.557486
0,0.345093,1.51239,0.368088,0.381238,1.023982,1.557486
0,0.345093,1.51239,0.368088,0.381238,1.023982,1.557486
0,0.345093,1.51239,0.368088,1.630282,1.242582,3.249083
0,0.345093,1.51239,0.368088,1.630282,1.242582,3.249083
0,0.345093,1.51239,0.368088,1.630282,1.242582,3.249083
0,0.345093,1.51239,0.368088,1.630282,1.242582,3.249083
0,0.345093,1.51239,0.368088,1.630282,1.242582,3.249083
0,0.345093,1.51239,0.368088,1.630282,1.242582,3.249083
0,0.345093,1.51239,0.368088,1.630282,1.242582,3.249083
0,0.345093,1.51239,0.368088,1.630282,1.242582,3.249083
0,0.345093,1.51239,0.368088,1.630282,1.242582,3.249083
0,0.345093,1.51239,0.368088,1.630282,1.242582,3.249083
0,0.345093,1.51239,0.368088,1.630282,1.242582,3.249083
0,0.345093,1.51239,0.368088,1.630282,1.242582,3.249083
0,0.345093,1.51239,0.368088,1.630282,1.242582,3.249083
0,0.345093,1.51239,0.368088,1.630282,1.242582,3.249083
0,0.345093,1.51239,0.368088,1.630282,1.242582,3.249083
0,0.345093,1.51239,0.368088,1.630282,1.242582,3.249083
0,0.13913,0.821304,0.09491,1.630282,1.242582,3.249083
0,0.13913,0.821304,0.09491,1.630282,1.242582,3.249083
0,0.13913,0.821304,0.09491,0.882646,0.501605,1.623376
0,0.13913,0.821304,0.09491,0.882646,0.501605,1.623376
0,0.13913,0.821304,0.09491,0.882646,0.501605,1.623376
0,0.13913,0.821304,0.09491,0.882646,0.501605,1.623376
0,0.13913,0.821304,0.09491,0.882646,0.501605,1.623376
0,0.13913,0.821304,0.09491,0.882646,0.501605,1.623376
0,0.13913,0.821304,0.09491,0.882646,0.501605,1.623376
0,0.13913,0.821304,0.09491,0.882646,0.501605,1.623376
0,0.13913,0.821304,0.09491,0.882646,0.501605,1.623376
0,0.13913,0.821304,0.09491,0.882646,0.501605,1.623376
0,0.13913,0.821304,0.09491,0.882646,0.501605,1.623376
0,0.13913,0.821304,0.09491,0.882646,0.501605,1.623376
0,0.13913,0.821304,0.09491,0.882646,0.501605,1.623376
0,0.13913,0.821304,0.09491,0.882646,0.501605,1.623376
0,0.13913,0.821304,0.09491,0.882646,0.501605,1.623376
0,0.13913,0.821304,0.09491,0.882646,0.501605,1.623376
0,0.13913,0.821304,0.09491,0.882646,0.501605,1.623376
0,0.095108,0.842865,0.19249,0.882646,0.501605,1.623376
0,0.095108,0.842865,0.19249,0.882646,0.501605,1.623376
0,0.095108,0.842865,0.19249,0.68359,0.559734,2.42073
0,0.095108,0.842865,0.19249,0.68359,0.559734,2.42073
0,0.095108,0.842865,0.19249,0.68359,0.559734,2.42073
0,0.095108,0.842865,0.19249,0.68359,0.559734,2.42073
0,0.095108,0.842865,0.19249,0.68359,0.559734,2.42073
0,0.095108,0.842865,0.19249,0.68359,0.559734,2.42073
0,0.095108,0.842865,0.19249,0.68359,0.559734,2.42073
0,0.095108,0.842865,0.19249,0.68359,0.559734,2.42073
0,0.095108,0.842865,0.19249,0.68359,0.559734,2.42073
0,0.095108,0.842865,0.19249,0.68359,0.559734,2.42073
0,0.095108,0.842865,0.19249,0.68359,0.559734,2.42073
0,0.095108,0.842865,0.19249,0.68359,0.559734,2.42073
0,0.095108,0.842865,0.19249,0.68359,0.559734,2.42073
0,0.095108,0.842865,0.19249,0.68359,0.559734,2.42073
0,0.095108,0.842865,0.19249,0.68359,0.559734,2.42073
0,0.095108,0.842865,0.19249,0.68359,0.559734,2.42073
0,0.519653,1.530594,0.70224,0.68359,0.559734,2.42073
0,0.519653,1.530594,0.70224,0.68359,0.559734,2.42073
0,0.519653,1.530594,0.70224,2.525341,0.85526,3.256944
0,0.519653,1.530594,0.70224,2.525341,0.85526,3.256944
0,0.519653,1.530594,0.70224,2.525341,0.85526,3.256944
0,0.519653,1.530594,0.70224,2.525341,0.85526,3.256944
0,0.519653,1.530594,0.70224,2.525341,0.85526,3.256944
0,0.519653,1.530594,0.70224,2.525341,0.85526,3.256944
0,0.519653,1.530594,0.70224,2.525341,0.85526,3.256944
0,0.519653,1.530594,0.70224,2.525341,0.85526,3.256944
0,0.519653,1.530594,0.70224,2.525341,0.85526,3.256944
0,0.519653,1.530594,0.70224,2.525341,0.85526,3.256944
0,0.519653,1.530594,0.70224,2.525341,0.85526,3.256944
0,0.519653,1.530594,0.70224,2.525341,0.85526,3.256944
0,0.519653,1.530594,0.70224,2.525341,0.85526,3.256944
0,0.519653,1.530594,0.70224,2.525341,0.85526,3.256944
0,0.519653,1.530594,0.70224,2.525341,0.85526,3.256944
0,0.519653,1.530594,0.70224,2.525341,0.85526,3.256944
0,0.519653,1.530594,0.70224,2.525341,0.85526,3.256944
0,0.447571,0.743851,0.548477,2.525341,0.85526,3.256944
0,0.447571,0.743851,0.548477,2.525341,0.85526,3.256944
0,0.447571,0.743851,0.548477,0.28878,1.807865,0.241968
0,0.447571,0.743851,0.548477,0.28878,1.807865,0.241968
0,0.447571,0.743851,0.548477,0.28878,1.807865,0.241968
0,0.447571,0.743851,0.548477,0.28878,1.807865,0.241968
0,0.447571,0.743851,0.548477,0.28878,1.807865,0.241968
0,0.447571,0.743851,0.548477,0.28878,1.807865,0.241968
0,0.447571,0.743851,0.548477,0.28878,1.807865,0.241968
0,0.447571,0.743851,0.548477,0.28878,1.807865,0.241968
0,0.447571,0.743851,0.548477,0.28878,1.807865,0.241968
0,0.447571,0.743851,0.548477,0.28878,1.807865,0.241968
0,0.447571,0.743851,0.548477,0.28878,1.807865,0.241968
0,0.447571,0.743851,0.548477,0.28878,1.807865,0.241968
0,0.447571,0.743851,0.548477,0.28878,1.807865,0.241968
0,0.447571,0.743851,0.548477,0.28878,1.807865,0.241968
0,0.447571,0.743851,0.548477,0.28878,1.807865,0.241968
0,0.447571,0.743851,0.548477,0.28878,1.807865,0.241968
0,0.430298,0.909073,0.443985,0.28878,1.807865,0.241968
0,0.430298,0.909073,0.443985,0.28878,1.807865,0.241968
0,0.430298,0.909073,0.443985,0.04458,0.255235,0.339943
0,0.430298,0.909073,0.443985,0.04458,0.255235,0.339943
0,0.430298,0.909073,0.443985,0.04458,0.255235,0.339943
0,0.430298,0.909073,0.443985,0.04458,0.255235,0.339943
0,0.430298,0.909073,0.443985,0.04458,0.255235,0.339943
0,0.430298,0.909073,0.443985,0.04458,0.255235,0.339943
0,0.430298,0.909073,0.443985,0.04458,0.255235,0.339943
0,0.430298,0.909073,0.443985,0.04458,0.255235,0.339943
0,0.430298,0.909073,0.443985,0.04458,0.255235,0.339943
0,0.430298,0.909073,0.443985,0.04458,0.255235,0.339943
0,0.430298,0.909073,0.443985,0.04458,0.255235,0.339943
0,0.430298,0.909073,0.443985,0.04458,0.255235,0.339943
0,0.430298,0.909073,0.443985,0.04458,0.255235,0.339943
0,0.430298,0.909073,0.443985,0.04458,0.255235,0.339943
0,0.430298,0.909073,0.443985,0.04458,0.255235,0.339943
0,0.430298,0.909073,0.443985,0.04458,0.255235,0.339943
0,0.430298,0.909073,0.443985,0.04458,0.255235,0.339943
0,0.490173,1.550629,0.478119,0.04458,0.255235,0.339943
0,0.490173,1.550629,0.478119,0.04458,0.255235,0.339943
0,0.490173,1.550629,0.478119,1.991033,0.194151,2.477038
0,0.490173,1.550629,0.478119,1.991033,0.194151,2.477038
0,0.490173,1.550629,0.478119,1.991033,0.194151,2.477038
0,0.490173,1.550629,0.478119,1.991033,0.194151,2.477038
0,0.490173,1.550629,0.478119,1.991033,0.194151,2.477038
0,0.490173,1.550629,0.478119,1.991033,0.194151,2.477038
0,0.490173,1.550629,0.478119,1.991033,0.194151,2.477038
0,0.490173,1.550629,0.478119,1.991033,0.194151,2.477038
0,0.490173,1.550629,0.478119,1.991033,0.194151,2.477038
0,0.490173,1.550629,0.478119,1.991033,0.194151,2.477038
0,0.490173,1.550629,0.478119,1.991033,0.194151,2.477038
0,0.490173,1.550629,0.478119,1.991033,0.194151,2.477038
0,0.490173,1.550629,0.478119,1.991033,0.194151,2.477038
0,0.490173,1.550629,0.478119,1.991033,0.194151,2.477038
0,0.490173,1.550629,0.478119,1.991033,0.194151,2.477038
0,0.490173,1.550629,0.478119,1.991033,0.194151,2.477038
0,0.134277,0.830704,0.109711,1.991033,0.194151,2.477038
0,0.134277,0.830704,0.109711,1.991033,0.194151,2.477038
0,0.134277,0.830704,0.109711,0.894218,0.455235,2.169786
0,0.134277,0.830704,0.109711,0.894218,0.455235,2.169786
0,0.134277,0.830704,0.109711,0.894218,0.455235,2.169786
0,0.134277,0.830704,0.109711,0.894218,0.455235,2.169786
0,0.134277,0.830704,0.109711,0.894218,0.455235,2.169786
0,0.134277,0.830704,0.109711,0.894218,0.455235,2.169786
0,0.134277,0.830704,0.109711,0.894218,0.455235,2.169786
0,0.134277,0.830704,0.109711,0.894218,0.455235,2.169786
0,0.134277,0.830704,0.109711,0.894218,0.455235,2.169786
0,0.134277,0.830704,0.109711,0.894218,0.455235,2.169786
0,0.134277,0.830704,0.109711,0.894218,0.455235,2.169786
0,0.134277,0.830704,0.109711,0.894218,0.455235,2.169786
0,0.134277,0.830704,0.109711,0.894218,0.455235,2.169786
0,0.134277,0.830704,0.109711,0.894218,0.455235,2.169786
0,0.134277,0.830704,0.109711,0.894218,0.455235,2.169786
0,0.134277,0.830704,0.109711,0.894218,0.455235,2.169786
0,0.134277,0.830704,0.109711,0.894218,0.455235,2.169786
0,0.134277,0.830704,0.109711,0.894218,0.455235,2.169786
0,0.134277,0.830704,0.109711,0.894218,0.455235,2.169786
0,0.131134,0.830612,0.168716,0.067772,0.66176,1.261224
0,0.131134,0.830612,0.168716,0.067772,0.66176,1.261224
0,0.131134,0.830612,0.168716,0.067772,0.66176,1.261224
0,0.131134,0.830612,0.168716,0.067772,0.66176,1.261224
0,0.131134,0.830612,0.168716,0.067772,0.66176,1.261224
0,0.131134,0.830612,0.168716,0.067772,0.66176,1.261224
0,0.131134,0.830612,0.168716,0.067772,0.66176,1.261224
0,0.131134,0.830612,0.168716,0.067772,0.66176,1.261224
0,0.131134,0.830612,0.168716,0.067772,0.66176,1.261224
0,0.131134,0.830612,0.168716,0.067772,0.66176,1.261224
0,0.131134,0.830612,0.168716,0.067772,0.66176,1.261224
0,0.131134,0.830612,0.168716,0.067772,0.66176,1.261224
0,0.131134,0.830612,0.168716,0.067772,0.66176,1.261224
0,0.131134,0.830612,0.168716,0.067772,0.66176,1.261224
0,0.131134,0.830612,0.168716,0.067772,0.66176,1.261224
0,0.131134,0.830612,0.168716,0.067772,0.66176,1.261224
0,0.131134,0.830612,0.168716,0.067772,0.66176,1.261224
0,0.131134,0.830612,0.168716,0.067772,0.66176,1.261224
0,0.131134,0.830612,0.168716,1.813293,1.285938,2.94078
0,0.131134,0.830612,0.168716,1.813293,1.285938,2.94078
0,0.454834,1.309937,0.569489,1.813293,1.285938,2.94078
0,0.454834,1.309937,0.569489,1.813293,1.285938,2.94078
0,0.454834,1.309937,0.569489,1.813293,1.285938,2.94078
0,0.454834,1.309937,0.569489,1.813293,1.285938,2.94078
0,0.454834,1.309937,0.569489,1.813293,1.285938,2.94078
0,0.454834,1.309937,0.569489,1.813293,1.285938,2.94078
0,0.454834,1.309937,0.569489,1.813293,1.285938,2.94078
0,0.454834,1.309937,0.569489,1.813293,1.285938,2.94078
0,0.454834,1.309937,0.569489,1.813293,1.285938,2.94078
0,0.454834,1.309937,0.569489,1.813293,1.285938,2.94078
0,0.454834,1.309937,0.569489,1.813293,1.285938,2.94078
0,0.454834,1.309937,0.569489,1.813293,1.285938,2.94078
0,0.454834,1.309937,0.569489,1.813293,1.285938,2.94078
0,0.454834,1.309937,0.569489,1.813293,1.285938,2.94078
0,0.454834,1.309937,0.569489,1.813293,1.285938,2.94078
0,0.454834,1.309937,0.569489,1.813293,1.285938,2.94078
0,0.454834,1.309937,0.569489,1.813293,1.285938,2.94078
0,0.454834,1.309937,0.569489,0.286571,1.557341,0.819706
0,0.454834,1.309937,0.569489,0.286571,1.557341,0.819706
0,0.454834,1.309937,0.569489,0.286571,1.557341,0.819706
0,0.471573,0.784973,0.419846,0.286571,1.557341,0.819706
0,0.471573,0.784973,0.419846,0.286571,1.557341,0.819706
0,0.471573,0.784973,0.419846,0.286571,1.557341,0.819706
0,0.471573,0.784973,0.419846,0.286571,1.557341,0.819706
0,0.471573,0.784973,0.419846,0.286571,1.557341,0.819706
0,0.471573,0.784973,0.419846,0.286571,1.557341,0.819706
0,0.471573,0.784973,0.419846,0.286571,1.557341,0.819706
0,0.471573,0.784973,0.419846,0.286571,1.557341,0.819706
0,0.471573,0.784973,0.419846,0.286571,1.557341,0.819706
0,0.471573,0.784973,0.419846,0.286571,1.557341,0.819706
0,0.471573,0.784973,0.419846,0.286571,1.557341,0.819706
0,0.471573,0.784973,0.419846,0.286571,1.557341,0.819706
0,0.471573,0.784973,0.419846,0.286571,1.557341,0.819706
0,0.471573,0.784973,0.419846,0.286571,1.557341,0.819706
0,0.471573,0.784973,0.419846,0.286571,1.557341,0.819706
0,0.471573,0.784973,0.419846,0.286571,1.557341,0.819706
0,0.471573,0.784973,0.419846,0.200002,0.147278,0.178813
0,0.471573,0.784973,0.419846,0.200002,0.147278,0.178813
0,0.471573,0.784973,0.419846,0.200002,0.147278,0.178813
0,0.471573,0.784973,0.419846,0.200002,0.147278,0.178813
0,0.530685,1.103271,0.517746,0.200002,0.147278,0.178813
0,0.530685,1.103271,0.517746,0.200002,0.147278,0.178813
0,0.530685,1.103271,0.517746,0.200002,0.147278,0.178813
0,0.530685,1.103271,0.517746,0.200002,0.147278,0.178813
0,0.530685,1.103271,0.517746,0.200002,0.147278,0.178813
0,0.530685,1.103271,0.517746,0.200002,0.147278,0.178813
0,0.530685,1.103271,0.517746,0.200002,0.147278,0.178813
0,0.530685,1.103271,0.517746,0.200002,0.147278,0.178813
0,0.530685,1.103271,0.517746,0.200002,0.147278,0.178813
0,0.530685,1.103271,0.517746,0.200002,0.147278,0.178813
0,0.530685,1.103271,0.517746,0.200002,0.147278,0.178813
0,0.530685,1.103271,0.517746,0.200002,0.147278,0.178813
0,0.530685,1.103271,0.517746,0.200002,0.147278,0.178813
0,0.530685,1.103271,0.517746,0.200002,0.147278,0.178813
0,0.530685,1.103271,0.517746,1.592503,0.999593,2.334679
0,0.530685,1.103271,0.517746,1.592503,0.999593,2.334679
0,0.530685,1.103271,0.517746,1.592503,0.999593,2.334679
0,0.530685,1.103271,0.517746,1.592503,0.999593,2.334679
0,0.530685,1.103271,0.517746,1.592503,0.999593,2.334679
0,0.530685,1.103271,0.517746,1.592503,0.999593,2.334679
0,0.408356,1.467285,0.375961,1.592503,0.999593,2.334679
0,0.408356,1.467285,0.375961,1.592503,0.999593,2.334679
0,0.408356,1.467285,0.375961,1.592503,0.999593,2.334679
0,0.408356,1.467285,0.375961,1.592503,0.999593,2.334679
0,0.408356,1.467285,0.375961,1.592503,0.999593,2.334679
0,0.408356,1.467285,0.375961,1.592503,0.999593,2.334679
0,0.408356,1.467285,0.375961,1.592503,0.999593,2.334679
0,0.408356,1.467285,0.375961,1.592503,0.999593,2.334679
0,0.408356,1.467285,0.375961,1.592503,0.999593,2.334679
0,0.408356,1.467285,0.375961,1.592503,0.999593,2.334679
0,0.408356,1.467285,0.375961,1.592503,0.999593,2.334679
0,0.408356,1.467285,0.375961,1.592503,0.999593,2.334679
0,0.408356,1.467285,0.375961,1.592503,0.999593,2.334679
0,0.408356,1.467285,0.375961,1.392213,0.405862,2.751472
0,0.408356,1.467285,0.375961,1.392213,0.405862,2.751472
0,0.408356,1.467285,0.375961,1.392213,0.405862,2.751472
0,0.408356,1.467285,0.375961,1.392213,0.405862,2.751472
0,0.408356,1.467285,0.375961,1.392213,0.405862,2.751472
0,0.408356,1.467285,0.375961,1.392213,0.405862,2.751472
0,0.408356,1.467285,0.375961,1.392213,0.405862,2.751472
0,0.144882,0.817184,0.096619,1.392213,0.405862,2.751472
0,0.144882,0.817184,0.096619,1.392213,0.405862,2.751472
0,0.144882,0.817184,0.096619,1.392213,0.405862,2.751472
0,0.144882,0.817184,0.096619,1.392213,0.405862,2.751472
0,0.144882,0.817184,0.096619,1.392213,0.405862,2.751472
0,0.144882,0.817184,0.096619,1.392213,0.405862,2.751472
0,0.144882,0.817184,0.096619,1.392213,0.405862,2.751472
0,0.144882,0.817184,0.096619,1.392213,0.405862,2.751472
0,0.144882,0.817184,0.096619,1.392213,0.405862,2.751472
0,0.144882,0.817184,0.096619,1.392213,0.405862,2.751472
0,0.144882,0.817184,0.096619,1.392213,0.405862,2.751472
0,0.144882,0.817184,0.096619,0.405517,0.283938,0.335913
0,0.144882,0.817184,0.096619,0.405517,0.283938,0.335913
0,0.144882,0.817184,0.096619,0.405517,0.283938,0.335913
0,0.144882,0.817184,0.096619,0.405517,0.283938,0.335913
0,0.144882,0.817184,0.096619,0.405517,0.283938,0.335913
0,0.144882,0.817184,0.096619,0.405517,0.283938,0.335913
0,0.144882,0.817184,0.096619,0.405517,0.283938,0.335913
0,0.144882,0.817184,0.096619,0.405517,0.283938,0.335913
0,0.144882,0.817184,0.096619,0.405517,0.283938,0.335913
0,0.074341,0.997391,0.284042,0.405517,0.283938,0.335913
0,0.074341,0.997391,0.284042,0.405517,0.283938,0.335913
0,0.074341,0.997391,0.284042,0.405517,0.283938,0.335913
0,0.074341,0.997391,0.284042,0.405517,0.283938,0.335913
0,0.074341,0.997391,0.284042,0.405517,0.283938,0.335913
0,0.074341,0.997391,0.284042,0.405517,0.283938,0.335913
0,0.074341,0.997391,0.284042,0.405517,0.283938,0.335913
0,0.074341,0.997391,0.284042,0.405517,0.283938,0.335913
0,0.074341,0.997391,0.284042,0.405517,0.283938,0.335913
0,0.074341,0.997391,0.284042,0.405517,0.283938,0.335913
0,0.074341,0.997391,0.284042,2.521102,0.682007,3.657247
0,0.074341,0.997391,0.284042,2.521102,0.682007,3.657247
0,0.074341,0.997391,0.284042,2.521102,0.682007,3.657247
0,0.074341,0.997391,0.284042,2.521102,0.682007,3.657247
0,0.074341,0.997391,0.284042,2.521102,0.682007,3.657247
0,0.074341,0.997391,0.284042,2.521102,0.682007,3.657247
0,0.074341,0.997391,0.284042,2.521102,0.682007,3.657247
0,0.074341,0.997391,0.284042,2.521102,0.682007,3.657247
0,0.074341,0.997391,0.284042,2.521102,0.682007,3.657247
0,0.074341,0.997391,0.284042,2.521102,0.682007,3.657247
0,0.074341,0.997391,0.284042,2.521102,0.682007,3.657247
0,0.468887,1.398071,0.933151,2.521102,0.682007,3.657247
0,0.468887,1.398071,0.933151,2.521102,0.682007,3.657247
0,0.468887,1.398071,0.933151,2.521102,0.682007,3.657247
0,0.468887,1.398071,0.933151,2.521102,0.682007,3.657247
0,0.468887,1.398071,0.933151,2.521102,0.682007,3.657247
0,0.468887,1.398071,0.933151,2.521102,0.682007,3.657247
0,0.468887,1.398071,0.933151,2.521102,0.682007,3.657247
0,0.468887,1.398071,0.933151,1.129549,1.318588,0.87067
0,0.468887,1.398071,0.933151,1.129549,1.318588,0.87067
0,0.468887,1.398071,0.933151,1.129549,1.318588,0.87067
0,0.468887,1.398071,0.933151,1.129549,1.318588,0.87067
0,0.468887,1.398071,0.933151,1.129549,1.318588,0.87067
0,0.468887,1.398071,0.933151,1.129549,1.318588,0.87067
0,0.468887,1.398071,0.933151,1.129549,1.318588,0.87067
0,0.468887,1.398071,0.933151,1.129549,1.318588,0.87067
0,0.468887,1.398071,0.933151,1.129549,1.318588,0.87067
0,0.468887,1.398071,0.933151,1.129549,1.318588,0.87067
0,0.468887,1.398071,0.933151,1.129549,1.318588,0.87067
0,0.468887,1.398071,0.933151,1.129549,1.318588,0.87067
0,0.468887,1.398071,0.933151,1.129549,1.318588,0.87067
0,0.338669,0.572815,0.514435,1.129549,1.318588,0.87067
0,0.338669,0.572815,0.514435,1.129549,1.318588,0.87067
0,0.338669,0.572815,0.514435,1.129549,1.318588,0.87067
0,0.338669,0.572815,0.514435,1.129549,1.318588,0.87067
0,0.338669,0.572815,0.514435,1.129549,1.318588,0.87067
0,0.338669,0.572815,0.514435,1.129549,1.318588,0.87067
0,0.338669,0.572815,0.514435,0.138842,0.388446,0.558314
0,0.338669,0.572815,0.514435,0.138842,0.388446,0.558314
0,0.338669,0.572815,0.514435,0.138842,0.388446,0.558314
0,0.338669,0.572815,0.514435,0.138842,0.388446,0.558314
0,0.338669,0.572815,0.514435,0.138842,0.388446,0.558314
0,0.338669,0.572815,0.514435,0.138842,0.388446,0.558314
0,0.338669,0.572815,0.514435,0.138842,0.388446,0.558314
0,0.338669,0.572815,0.514435,0.138842,0.388446,0.558314
0,0.338669,0.572815,0.514435,0.138842,0.388446,0.558314
0,0.338669,0.572815,0.514435,0.138842,0.388446,0.558314
0,0.338669,0.572815,0.514435,0.138842,0.388446,0.558314
0,0.338669,0.572815,0.514435,0.138842,0.388446,0.558314
0,0.338669,0.572815,0.514435,0.138842,0.388446,0.558314
0,0.338669,0.572815,0.514435,0.138842,0.388446,0.558314
0,0.338669,0.572815,0.514435,0.138842,0.388446,0.558314
0,0.338669,0.572815,0.514435,0.138842,0.388446,0.558314
0,0.338669,0.572815,0.514435,0.138842,0.388446,0.558314
0,0.338669,0.572815,0.514435,0.138842,0.388446,0.558314
0,0.338669,0.572815,0.514435,1.335198,1.686425,2.191914
0,0.338669,0.572815,0.514435,1.335198,1.686425,2.191914
0,0.338669,0.572815,0.514435,1.335198,1.686425,2.191914
0,0.338669,0.572815,0.514435,1.335198,1.686425,2.191914
0,0.510834,1.737137,0.592072,1.335198,1.686425,2.191914
0,0.510834,1.737137,0.592072,1.335198,1.686425,2.191914
0,0.510834,1.737137,0.592072,1.335198,1.686425,2.191914
0,0.510834,1.737137,0.592072,1.335198,1.686425,2.191914
0,0.510834,1.737137,0.592072,1.335198,1.686425,2.191914
0,0.510834,1.737137,0.592072,1.335198,1.686425,2.191914
0,0.510834,1.737137,0.592072,1.335198,1.686425,2.191914
0,0.510834,1.737137,0.592072,1.335198,1.686425,2.191914
0,0.510834,1.737137,0.592072,1.335198,1.686425,2.191914
0,0.510834,1.737137,0.592072,1.335198,1.686425,2.191914
0,0.510834,1.737137,0.592072,1.335198,1.686425,2.191914
0,0.510834,1.737137,0.592072,1.335198,1.686425,2.191914
0,0.510834,1.737137,0.592072,1.335198,1.686425,2.191914
0,0.510834,1.737137,0.592072,1.335198,1.686425,2.191914
0,0.510834,1.737137,0.592072,1.335198,1.686425,2.191914
0,0.510834,1.737137,0.592072,1.441235,2.314649,3.064422
0,0.510834,1.737137,0.592072,1.441235,2.314649,3.064422
0,0.510834,1.737137,0.592072,1.441235,2.314649,3.064422
0,0.510834,1.737137,0.592072,1.441235,2.314649,3.064422
0,0.215469,0.989975,0.053741,1.441235,2.314649,3.064422
0,0.215469,0.989975,0.053741,1.441235,2.314649,3.064422
0,0.215469,0.989975,0.053741,1.441235,2.314649,3.064422
0,0.215469,0.989975,0.053741,1.441235,2.314649,3.064422
0,0.215469,0.989975,0.053741,1.441235,2.314649,3.064422
0,0.215469,0.989975,0.053741,1.441235,2.314649,3.064422
0,0.215469,0.989975,0.053741,1.441235,2.314649,3.064422
0,0.215469,0.989975,0.053741,1.441235,2.314649,3.064422
0,0.215469,0.989975,0.053741,1.441235,2.314649,3.064422
0,0.215469,0.989975,0.053741,1.441235,2.314649,3.064422
0,0.215469,0.989975,0.053741,1.441235,2.314649,3.064422
0,0.215469,0.989975,0.053741,1.441235,2.314649,3.064422
0,0.215469,0.989975,0.053741,1.441235,2.314649,3.064422
0,0.215469,0.989975,0.053741,1.441235,2.314649,3.064422
0,0.215469,0.989975,0.053741,0.074349,0.158092,1.660764
0,0.215469,0.989975,0.053741,0.074349,0.158092,1.660764
0,0.215469,0.989975,0.053741,0.074349,0.158092,1.660764
0,0.215469,0.989975,0.053741,0.074349,0.158092,1.660764
0,0.006058,0.766068,0.006927,0.074349,0.158092,1.660764
0,0.006058,0.766068,0.006927,0.074349,0.158092,1.660764
0,0.006058,0.766068,0.006927,0.074349,0.158092,1.660764
0,0.006058,0.766068,0.006927,0.074349,0.158092,1.660764
0,0.006058,0.766068,0.006927,0.074349,0.158092,1.660764
0,0.006058,0.766068,0.006927,0.074349,0.158092,1.660764
0,0.006058,0.766068,0.006927,0.074349,0.158092,1.660764
0,0.006058,0.766068,0.006927,0.074349,0.158092,1.660764
0,0.006058,0.766068,0.006927,0.074349,0.158092,1.660764
0,0.006058,0.766068,0.006927,0.074349,0.158092,1.660764
0,0.006058,0.766068,0.006927,0.074349,0.158092,1.660764
0,0.006058,0.766068,0.006927,0.074349,0.158092,1.660764
0,0.006058,0.766068,0.006927,0.074349,0.158092,1.660764
0,0.006058,0.766068,0.006927,0.074349,0.158092,1.660764
0,0.006058,0.766068,0.006927,0.074349,0.158092,1.660764
0,0.006058,0.766068,0.006927,1.630647,0.656469,3.557829
0,0.006058,0.766068,0.006927,1.630647,0.656469,3.557829
0,0.006058,0.766068,0.006927,1.630647,0.656469,3.557829
0,0.006058,0.766068,0.006927,1.630647,0.656469,3.557829
0,0.443619,1.570999,0.537048,1.630647,0.656469,3.557829
0,0.443619,1.570999,0.537048,1.630647,0.656469,3.557829
0,0.443619,1.570999,0.537048,1.630647,0.656469,3.557829
0,0.443619,1.570999,0.537048,1.630647,0.656469,3.557829
0,0.443619,1.570999,0.537048,1.630647,0.656469,3.557829
0,0.443619,1.570999,0.537048,1.630647,0.656469,3.557829
0,0.443619,1.570999,0.537048,1.630647,0.656469,3.557829
0,0.443619,1.570999,0.537048,1.630647,0.656469,3.557829
0,0.443619,1.570999,0.537048,1.630647,0.656469,3.557829
0,0.443619,1.570999,0.537048,1.630647,0.656469,3.557829
0,0.443619,1.570999,0.537048,1.630647,0.656469,3.557829
0,0.443619,1.570999,0.537048,1.630647,0.656469,3.557829
0,0.443619,1.570999,0.537048,1.630647,0.656469,3.557829
0,0.443619,1.570999,0.537048,1.630647,0.656469,3.557829
0,0.443619,1.570999,0.537048,1.633552,1.156467,2.803927
0,0.443619,1.570999,0.537048,1.633552,1.156467,2.803927
0,0.443619,1.570999,0.537048,1.633552,1.156467,2.803927
0,0.443619,1.570999,0.537048,1.633552,1.156467,2.803927
0,0.707062,0.622696,0.592072,1.633552,1.156467,2.803927
0,0.707062,0.622696,0.592072,1.633552,1.156467,2.803927
0,0.707062,0.622696,0.592072,1.633552,1.156467,2.803927
0,0.707062,0.622696,0.592072,1.633552,1.156467,2.803927
0,0.707062,0.622696,0.592072,1.633552,1.156467,2.803927
0,0.707062,0.622696,0.592072,1.633552,1.156467,2.803927
0,0.707062,0.622696,0.592072,1.633552,1.156467,2.803927
0,0.707062,0.622696,0.592072,1.633552,1.156467,2.803927
0,0.707062,0.622696,0.592072,1.633552,1.156467,2.803927
0,0.707062,0.622696,0.592072,1.633552,1.156467,2.803927
0,0.707062,0.622696,0.592072,1.633552,1.156467,2.803927
0,0.707062,0.622696,0.592072,1.633552,1.156467,2.803927
0,0.707062,0.622696,0.592072,1.633552,1.156467,2.803927
0,0.707062,0.622696,0.592072,1.633552,1.156467,2.803927
0,0.707062,0.622696,0.592072,1.633552,1.156467,2.803927
0,0.707062,0.622696,0.592072,0.050097,1.107857,0.668348
0,0.707062,0.622696,0.592072,0.050097,1.107857,0.668348
0,0.707062,0.622696,0.592072,0.050097,1.107857,0.668348
0,0.707062,0.622696,0.592072,0.050097,1.107857,0.668348
0,0.609924,0.846558,0.486893,0.050097,1.107857,0.668348
0,0.609924,0.846558,0.486893,0.050097,1.107857,0.668348
0,0.609924,0.846558,0.486893,0.050097,1.107857,0.668348
0,0.609924,0.846558,0.486893,0.050097,1.107857,0.668348
0,0.609924,0.846558,0.486893,0.050097,1.107857,0.668348
0,0.609924,0.846558,0.486893,0.050097,1.107857,0.668348
0,0.609924,0.846558,0.486893,0.050097,1.107857,0.668348
0,0.609924,0.846558,0.486893,0.050097,1.107857,0.668348
0,0.609924,0.846558,0.486893,0.050097,1.107857,0.668348
0,0.609924,0.846558,0.486893,0.050097,1.107857,0.668348
0,0.609924,0.846558,0.486893,0.050097,1.107857,0.668348
0,0.609924,0.846558,0.486893,0.050097,1.107857,0.668348
0,0.609924,0.846558,0.486893,0.050097,1.107857,0.668348
0,0.609924,0.846558,0.486893,0.050097,1.107857,0.668348
0,0.609924,0.846558,0.486893,0.479604,0.148649,2.351932
0,0.609924,0.846558,0.486893,0.479604,0.148649,2.351932
0,0.609924,0.846558,0.486893,0.479604,0.148649,2.351932
0,0.609924,0.846558,0.486893,0.479604,0.148649,2.351932
0,0.609924,0.846558,0.486893,0.479604,0.148649,2.351932
0,0.609924,0.846558,0.486893,0.479604,0.148649,2.351932
0,0.609924,0.846558,0.486893,0.479604,0.148649,2.351932
0,0.609924,0.846558,0.486893,0.479604,0.148649,2.351932
0,0.609924,0.846558,0.486893,0.479604,0.148649,2.351932
0,0.609924,0.846558,0.486893,0.479604,0.148649,2.351932
0,0.609924,0.846558,0.486893,0.479604,0.148649,2.351932
0,0.609924,0.846558,0.486893,0.479604,0.148649,2.351932
0,0.609924,0.846558,0.486893,0.479604,0.148649,2.351932
0,0.609924,0.846558,0.486893,0.479604,0.148649,2.351932
0,0.609924,0.846558,0.486893,0.479604,0.148649,2.351932
0,0.427277,0.751968,0.268127,0.479604,0.148649,2.351932
0,0.427277,0.751968,0.268127,0.479604,0.148649,2.351932
0,0.427277,0.751968,0.268127,0.479604,0.148649,2.351932
0,0.427277,0.751968,0.268127,0.100812,1.048605,0.740841
0,0.427277,0.751968,0.268127,0.100812,1.048605,0.740841
0,0.427277,0.751968,0.268127,0.100812,1.048605,0.740841
0,0.427277,0.751968,0.268127,0.100812,1.048605,0.740841
0,0.427277,0.751968,0.268127,0.100812,1.048605,0.740841
0,0.427277,0.751968,0.268127,0.100812,1.048605,0.740841
0,0.427277,0.751968,0.268127,0.100812,1.048605,0.740841
0,0.427277,0.751968,0.268127,0.100812,1.048605,0.740841
0,0.427277,0.751968,0.268127,0.100812,1.048605,0.740841
0,0.427277,0.751968,0.268127,0.100812,1.048605,0.740841
0,0.427277,0.751968,0.268127,0.100812,1.048605,0.740841
0,0.427277,0.751968,0.268127,0.100812,1.048605,0.740841
0,0.427277,0.751968,0.268127,0.100812,1.048605,0.740841
0,0.427277,0.751968,0.268127,0.100812,1.048605,0.740841
0,0.427277,0.751968,0.268127,0.100812,1.048605,0.740841
0,0.427277,0.751968,0.268127,0.100812,1.048605,0.740841
0,0.427277,0.751968,0.268127,0.100812,1.048605,0.740841
0,0.393402,0.818207,0.298065,0.100812,1.048605,0.740841
0,0.393402,0.818207,0.298065,0.100812,1.048605,0.740841
0,0.393402,0.818207,0.298065,0.089586,0.843916,0.165874
0,0.393402,0.818207,0.298065,0.089586,0.843916,0.165874
0,0.393402,0.818207,0.298065,0.089586,0.843916,0.165874
0,0.393402,0.818207,0.298065,0.089586,0.843916,0.165874
0,0.393402,0.818207,0.298065,0.089586,0.843916,0.165874
0,0.393402,0.818207,0.298065,0.089586,0.843916,0.165874
0,0.393402,0.818207,0.298065,0.089586,0.843916,0.165874
0,0.393402,0.818207,0.298065,0.089586,0.843916,0.165874
0,0.393402,0.818207,0.298065,0.089586,0.843916,0.165874
0,0.393402,0.818207,0.298065,0.089586,0.843916,0.165874
0,0.393402,0.818207,0.298065,0.089586,0.843916,0.165874
0,0.393402,0.818207,0.298065,0.089586,0.843916,0.165874
0,0.393402,0.818207,0.298065,0.089586,0.843916,0.165874
0,0.393402,0.818207,0.298065,0.089586,0.843916,0.165874
0,0.393402,0.818207,0.298065,0.089586,0.843916,0.165874
0,0.393402,0.818207,0.298065,0.089586,0.843916,0.165874
0,0.393402,0.818207,0.298065,0.089586,0.843916,0.165874
0,0.393402,0.818207,0.298065,0.089586,0.843916,0.165874
0,0.410263,1.287155,0.428986,0.03602,0.202864,0.403531
0,0.410263,1.287155,0.428986,0.03602,0.202864,0.403531
0,0.410263,1.287155,0.428986,0.03602,0.202864,0.403531
0,0.410263,1.287155,0.428986,0.03602,0.202864,0.403531
0,0.410263,1.287155,0.428986,0.03602,0.202864,0.403531
0,0.410263,1.287155,0.428986,0.03602,0.202864,0.403531
0,0.410263,1.287155,0.428986,0.03602,0.202864,0.403531
0,0.410263,1.287155,0.428986,0.03602,0.202864,0.403531
0,0.410263,1.287155,0.428986,0.03602,0.202864,0.403531
0,0.410263,1.287155,0.428986,0.03602,0.202864,0.403531
0,0.410263,1.287155,0.428986,0.03602,0.202864,0.403531
0,0.410263,1.287155,0.428986,0.03602,0.202864,0.403531
0,0.410263,1.287155,0.428986,0.03602,0.202864,0.403531
0,0.410263,1.287155,0.428986,0.03602,0.202864,0.403531
0,0.410263,1.287155,0.428986,0.03602,0.202864,0.403531
0,0.410263,1.287155,0.428986,0.03602,0.202864,0.403531
0,0.410263,1.287155,0.428986,0.03602,0.202864,0.403531
0,0.410263,1.287155,0.428986,0.03602,0.202864,0.403531
0,0.410263,1.287155,0.428986,0.03602,0.202864,0.403531
0,0.410263,1.287155,0.428986,0.338926,0.30904,1.516495
0,0.310272,0.993484,0.193558,0.338926,0.30904,1.516495
0,0.310272,0.993484,0.193558,0.338926,0.30904,1.516495
0,0.310272,0.993484,0.193558,0.338926,0.30904,1.516495
0,0.310272,0.993484,0.193558,0.338926,0.30904,1.516495
0,0.310272,0.993484,0.193558,0.338926,0.30904,1.516495
0,0.310272,0.993484,0.193558,0.338926,0.30904,1.516495
0,0.310272,0.993484,0.193558,0.338926,0.30904,1.516495
0,0.310272,0.993484,0.193558,0.338926,0.30904,1.516495
0,0.310272,0.993484,0.193558,0.338926,0.30904,1.516495
0,0.310272,0.993484,0.193558,0.338926,0.30904,1.516495
0,0.310272,0.993484,0.193558,0.338926,0.30904,1.516495
0,0.310272,0.993484,0.193558,0.338926,0.30904,1.516495
0,0.310272,0.993484,0.193558,0.338926,0.30904,1.516495
0,0.310272,0.993484,0.193558,0.338926,0.30904,1.516495
0,0.310272,0.993484,0.193558,0.338926,0.30904,1.516495
0,0.310272,0.993484,0.193558,0.338926,0.30904,1.516495
0,0.310272,0.993484,0.193558,0.338926,0.30904,1.516495
0,0.310272,0.993484,0.193558,0.178944,0.237348,1.04859
0,0.310272,0.993484,0.193558,0.178944,0.237348,1.04859
0,0.310272,0.993484,0.193558,0.178944,0.237348,1.04859
0,0.160995,0.845306,0.076523,0.178944,0.237348,1.04859
0,0.160995,0.845306,0.076523,0.178944,0.237348,1.04859
0,0.160995,0.845306,0.076523,0.178944,0.237348,1.04859
0,0.160995,0.845306,0.076523,0.178944,0.237348,1.04859
0,0.160995,0.845306,0.076523,0.178944,0.237348,1.04859
0,0.160995,0.845306,0.076523,0.178944,0.237348,1.04859
0,0.160995,0.845306,0.076523,0.178944,0.237348,1.04859
0,0.160995,0.845306,0.076523,0.178944,0.237348,1.04859
0,0.160995,0.845306,0.076523,0.178944,0.237348,1.04859
0,0.160995,0.845306,0.076523,0.178944,0.237348,1.04859
0,0.160995,0.845306,0.076523,0.178944,0.237348,1.04859
0,0.160995,0.845306,0.076523,0.178944,0.237348,1.04859
0,0.160995,0.845306,0.076523,0.178944,0.237348,1.04859
0,0.160995,0.845306,0.076523,0.178944,0.237348,1.04859
0,0.160995,0.845306,0.076523,0.178944,0.237348,1.04859
0,0.160995,0.845306,0.076523,0.178944,0.237348,1.04859
0,0.160995,0.845306,0.076523,0.157571,0.081133,1.166729
0,0.160995,0.845306,0.076523,0.157571,0.081133,1.166729
0,0.160995,0.845306,0.076523,0.157571,0.081133,1.166729
0,0.160995,0.845306,0.076523,0.157571,0.081133,1.166729
0,0.140366,1.316086,0.31694,0.157571,0.081133,1.166729
0,0.140366,1.316086,0.31694,0.157571,0.081133,1.166729
0,0.140366,1.316086,0.31694,0.157571,0.081133,1.166729
0,0.140366,1.316086,0.31694,0.157571,0.081133,1.166729
0,0.140366,1.316086,0.31694,0.157571,0.081133,1.166729
0,0.140366,1.316086,0.31694,0.157571,0.081133,1.166729
0,0.140366,1.316086,0.31694,0.157571,0.081133,1.166729
0,0.140366,1.316086,0.31694,0.157571,0.081133,1.166729
0,0.140366,1.316086,0.31694,0.157571,0.081133,1.166729
0,0.140366,1.316086,0.31694,0.157571,0.081133,1.166729
0,0.140366,1.316086,0.31694,0.157571,0.081133,1.166729
0,0.140366,1.316086,0.31694,0.157571,0.081133,1.166729
0,0.140366,1.316086,0.31694,0.157571,0.081133,1.166729
0,0.140366,1.316086,0.31694,0.157571,0.081133,1.166729
0,0.140366,1.316086,0.31694,0.157571,0.081133,1.166729
0,0.140366,1.316086,0.31694,0.360301,0.549354,1.374616
0,0.140366,1.316086,0.31694,0.360301,0.549354,1.374616
0,0.140366,1.316086,0.31694,0.360301,0.549354,1.374616
0,0.140366,1.316086,0.31694,0.360301,0.549354,1.374616
0,0.140366,1.316086,0.31694,0.360301,0.549354,1.374616
0,0.140366,1.316086,0.31694,0.360301,0.549354,1.374616
0,0.438934,1.062988,0.388321,0.360301,0.549354,1.374616
0,0.438934,1.062988,0.388321,0.360301,0.549354,1.374616
0,0.438934,1.062988,0.388321,0.360301,0.549354,1.374616
0,0.438934,1.062988,0.388321,0.360301,0.549354,1.374616
0,0.438934,1.062988,0.388321,0.360301,0.549354,1.374616
0,0.438934,1.062988,0.388321,0.360301,0.549354,1.374616
0,0.438934,1.062988,0.388321,0.360301,0.549354,1.374616
0,0.438934,1.062988,0.388321,0.360301,0.549354,1.374616
0,0.438934,1.062988,0.388321,0.360301,0.549354,1.374616
0,0.438934,1.062988,0.388321,0.360301,0.549354,1.374616
0,0.438934,1.062988,0.388321,0.360301,0.549354,1.374616
0,0.438934,1.062988,0.388321,0.360301,0.549354,1.374616
0,0.438934,1.062988,0.388321,0.104441,0.379558,0.301912
0,0.438934,1.062988,0.388321,0.104441,0.379558,0.301912
0,0.438934,1.062988,0.388321,0.104441,0.379558,0.301912
0,0.438934,1.062988,0.388321,0.104441,0.379558,0.301912
0,0.438934,1.062988,0.388321,0.104441,0.379558,0.301912
0,0.438934,1.062988,0.388321,0.104441,0.379558,0.301912
0,0.438934,1.062988,0.388321,0.104441,0.379558,0.301912
0,0.438934,1.062988,0.388321,0.104441,0.379558,0.301912
0,0.385468,0.712753,0.434784,0.104441,0.379558,0.301912
0,0.385468,0.712753,0.434784,0.104441,0.379558,0.301912
0,0.385468,0.712753,0.434784,0.104441,0.379558,0.301912
0,0.385468,0.712753,0.434784,0.104441,0.379558,0.301912
0,0.385468,0.712753,0.434784,0.104441,0.379558,0.301912
0,0.385468,0.712753,0.434784,0.104441,0.379558,0.301912
0,0.385468,0.712753,0.434784,0.104441,0.379558,0.301912
0,0.385468,0.712753,0.434784,0.104441,0.379558,0.301912
0,0.385468,0.712753,0.434784,0.104441,0.379558,0.301912
0,0.385468,0.712753,0.434784,0.104441,0.379558,0.301912
0,0.385468,0.712753,0.434784,0.104441,0.379558,0.301912
0,0.385468,0.712753,0.434784,0.090847,0.434743,0.33611
0,0.385468,0.712753,0.434784,0.090847,0.434743,0.33611
0,0.385468,0.712753,0.434784,0.090847,0.434743,0.33611
0,0.385468,0.712753,0.434784,0.090847,0.434743,0.33611
0,0.385468,0.712753,0.434784,0.090847,0.434743,0.33611
0,0.385468,0.712753,0.434784,0.090847,0.434743,0.33611
0,0.385468,0.712753,0.434784,0.090847,0.434743,0.33611
0,0.385468,0.712753,0.434784,0.090847,0.434743,0.33611
0,0.385468,0.712753,0.434784,0.090847,0.434743,0.33611
0,0.397095,0.953476,0.276062,0.090847,0.434743,0.33611
0,0.397095,0.953476,0.276062,0.090847,0.434743,0.33611
0,0.397095,0.953476,0.276062,0.090847,0.434743,0.33611
0,0.397095,0.953476,0.276062,0.090847,0.434743,0.33611
0,0.397095,0.953476,0.276062,0.090847,0.434743,0.33611
0,0.397095,0.953476,0.276062,0.090847,0.434743,0.33611
0,0.397095,0.953476,0.276062,0.090847,0.434743,0.33611
0,0.397095,0.953476,0.276062,0.090847,0.434743,0.33611
0,0.397095,0.953476,0.276062,0.090847,0.434743,0.33611
0,0.397095,0.953476,0.276062,0.230711,0.326389,0.63337
0,0.397095,0.953476,0.276062,0.230711,0.326389,0.63337
0,0.397095,0.953476,0.276062,0.230711,0.326389,0.63337
0,0.397095,0.953476,0.276062,0.230711,0.326389,0.63337
0,0.397095,0.953476,0.276062,0.230711,0.326389,0.63337
0,0.397095,0.953476,0.276062,0.230711,0.326389,0.63337
0,0.397095,0.953476,0.276062,0.230711,0.326389,0.63337
0,0.397095,0.953476,0.276062,0.230711,0.326389,0.63337
0,0.397095,0.953476,0.276062,0.230711,0.326389,0.63337
0,0.397095,0.953476,0.276062,0.230711,0.326389,0.63337
0,0.397095,0.953476,0.276062,0.230711,0.326389,0.63337
0,0.397095,0.953476,0.276062,0.230711,0.326389,0.63337
0,0.397095,0.953476,0.276062,0.230711,0.326389,0.63337
0,0.397095,0.953476,0.276062,0.230711,0.326389,0.63337
0,0.397095,0.953476,0.276062,0.230711,0.326389,0.63337
0,0.397095,0.953476,0.276062,0.230711,0.326389,0.63337
0,0.397095,0.953476,0.276062,0.230711,0.326389,0.63337
0,0.397095,0.953476,0.276062,0.230711,0.326389,0.63337
0,0.397095,0.953476,0.276062,0.230711,0.326389,0.63337
0,0.397095,0.953476,0.276062,0.131991,0.055025,1.843388
0,0.330292,0.944412,0.15062,0.131991,0.055025,1.843388
0,0.330292,0.944412,0.15062,0.131991,0.055025,1.843388
0,0.330292,0.944412,0.15062,0.131991,0.055025,1.843388
0,0.330292,0.944412,0.15062,0.131991,0.055025,1.843388
0,0.330292,0.944412,0.15062,0.131991,0.055025,1.843388
0,0.330292,0.944412,0.15062,0.131991,0.055025,1.843388
0,0.330292,0.944412,0.15062,0.131991,0.055025,1.843388
0,0.330292,0.944412,0.15062,0.131991,0.055025,1.843388
0,0.330292,0.944412,0.15062,0.131991,0.055025,1.843388
0,0.330292,0.944412,0.15062,0.131991,0.055025,1.843388
0,0.330292,0.944412,0.15062,0.131991,0.055025,1.843388
0,0.330292,0.944412,0.15062,0.131991,0.055025,1.843388
0,0.330292,0.944412,0.15062,0.131991,0.055025,1.843388
0,0.330292,0.944412,0.15062,0.131991,0.055025,1.843388
0,0.330292,0.944412,0.15062,0.131991,0.055025,1.843388
0,0.330292,0.944412,0.15062,0.131991,0.055025,1.843388
0,0.330292,0.944412,0.15062,0.131991,0.055025,1.843388
0,0.330292,0.944412,0.15062,0.036196,0.270242,0.716171
0,0.120514,0.79454,0.12767,0.036196,0.270242,0.716171
0,0.120514,0.79454,0.12767,0.036196,0.270242,0.716171
0,0.120514,0.79454,0.12767,0.036196,0.270242,0.716171
0,0.120514,0.79454,0.12767,0.036196,0.270242,0.716171
0,0.120514,0.79454,0.12767,0.036196,0.270242,0.716171
0,0.120514,0.79454,0.12767,0.036196,0.270242,0.716171
0,0.120514,0.79454,0.12767,0.036196,0.270242,0.716171
0,0.120514,0.79454,0.12767,0.036196,0.270242,0.716171
0,0.120514,0.79454,0.12767,0.036196,0.270242,0.716171
0,0.120514,0.79454,0.12767,0.036196,0.270242,0.716171
0,0.120514,0.79454,0.12767,0.036196,0.270242,0.716171
0,0.120514,0.79454,0.12767,0.036196,0.270242,0.716171
0,0.120514,0.79454,0.12767,0.036196,0.270242,0.716171
0,0.120514,0.79454,0.12767,0.036196,0.270242,0.716171
0,0.120514,0.79454,0.12767,0.036196,0.270242,0.716171
0,0.120514,0.79454,0.12767,0.036196,0.270242,0.716171
0,0.120514,0.79454,0.12767,0.036196,0.270242,0.716171
0,0.120514,0.79454,0.12767,0.036196,0.270242,0.716171
0,0.120514,0.79454,0.12767,0.170344,0.108896,1.872814
0,0.15564,1.227814,0.262482,0.170344,0.108896,1.872814
0,0.15564,1.227814,0.262482,0.170344,0.108896,1.872814
0,0.15564,1.227814,0.262482,0.170344,0.108896,1.872814
0,0.15564,1.227814,0.262482,0.170344,0.108896,1.872814
0,0.15564,1.227814,0.262482,0.170344,0.108896,1.872814
0,0.15564,1.227814,0.262482,0.170344,0.108896,1.872814
0,0.15564,1.227814,0.262482,0.170344,0.108896,1.872814
0,0.15564,1.227814,0.262482,0.170344,0.108896,1.872814
0,0.15564,1.227814,0.262482,0.170344,0.108896,1.872814
0,0.15564,1.227814,0.262482,0.170344,0.108896,1.872814
0,0.15564,1.227814,0.262482,0.170344,0.108896,1.872814
0,0.15564,1.227814,0.262482,0.170344,0.108896,1.872814
0,0.15564,1.227814,0.262482,0.170344,0.108896,1.872814
0,0.15564,1.227814,0.262482,0.170344,0.108896,1.872814
0,0.15564,1.227814,0.262482,0.170344,0.108896,1.872814
0,0.15564,1.227814,0.262482,0.170344,0.108896,1.872814
0,0.15564,1.227814,0.262482,0.170344,0.108896,1.872814
0,0.15564,1.227814,0.262482,0.013146,0.556915,1.979747
0,0.437744,1.254883,0.333557,0.013146,0.556915,1.979747
0,0.437744,1.254883,0.333557,0.013146,0.556915,1.979747
0,0.437744,1.254883,0.333557,0.013146,0.556915,1.979747
0,0.437744,1.254883,0.333557,0.013146,0.556915,1.979747
0,0.437744,1.254883,0.333557,0.013146,0.556915,1.979747
0,0.437744,1.254883,0.333557,0.013146,0.556915,1.979747
0,0.437744,1.254883,0.333557,0.013146,0.556915,1.979747
0,0.437744,1.254883,0.333557,0.013146,0.556915,1.979747
0,0.437744,1.254883,0.333557,0.013146,0.556915,1.979747
0,0.437744,1.254883,0.333557,0.013146,0.556915,1.979747
0,0.437744,1.254883,0.333557,0.013146,0.556915,1.979747
0,0.437744,1.254883,0.333557,0.013146,0.556915,1.979747
0,0.437744,1.254883,0.333557,0.013146,0.556915,1.979747
0,0.437744,1.254883,0.333557,0.013146,0.556915,1.979747
0,0.437744,1.254883,0.333557,0.013146,0.556915,1.979747
0,0.437744,1.254883,0.333557,0.013146,0.556915,1.979747
0,0.437744,1.254883,0.333557,0.013146,0.556915,1.979747
0,0.437744,1.254883,0.333557,0.013146,0.556915,1.979747
0,0.437744,1.254883,0.333557,0.008816,0.170486,0.671531
0,0.387268,0.679733,0.248322,0.008816,0.170486,0.671531
0,0.387268,0.679733,0.248322,0.008816,0.170486,0.671531
0,0.387268,0.679733,0.248322,0.008816,0.170486,0.671531
0,0.387268,0.679733,0.248322,0.008816,0.170486,0.671531
0,0.387268,0.679733,0.248322,0.008816,0.170486,0.671531
0,0.387268,0.679733,0.248322,0.008816,0.170486,0.671531
0,0.387268,0.679733,0.248322,0.008816,0.170486,0.671531
0,0.387268,0.679733,0.248322,0.008816,0.170486,0.671531
0,0.387268,0.679733,0.248322,0.008816,0.170486,0.671531
0,0.387268,0.679733,0.248322,0.008816,0.170486,0.671531
0,0.387268,0.679733,0.248322,0.008816,0.170486,0.671531
0,0.387268,0.679733,0.248322,0.008816,0.170486,0.671531
0,0.387268,0.679733,0.248322,0.008816,0.170486,0.671531
0,0.387268,0.679733,0.248322,0.008816,0.170486,0.671531
0,0.387268,0.679733,0.248322,0.008816,0.170486,0.671531
0,0.387268,0.679733,0.248322,0.008816,0.170486,0.671531
0,0.387268,0.679733,0.248322,0.008816,0.170486,0.671531
0,0.387268,0.679733,0.248322,0.02373,0.149347,0.854082
0,0.509445,0.976959,0.347397,0.02373,0.149347,0.854082
0,0.509445,0.976959,0.347397,0.02373,0.149347,0.854082
0,0.509445,0.976959,0.347397,0.02373,0.149347,0.854082
0,0.509445,0.976959,0.347397,0.02373,0.149347,0.854082
0,0.509445,0.976959,0.347397,0.02373,0.149347,0.854082
0,0.509445,0.976959,0.347397,0.02373,0.149347,0.854082
0,0.509445,0.976959,0.347397,0.02373,0.149347,0.854082
0,0.509445,0.976959,0.347397,0.02373,0.149347,0.854082
0,0.509445,0.976959,0.347397,0.02373,0.149347,0.854082
0,0.509445,0.976959,0.347397,0.02373,0.149347,0.854082
0,0.509445,0.976959,0.347397,0.02373,0.149347,0.854082
0,0.509445,0.976959,0.347397,0.02373,0.149347,0.854082
0,0.509445,0.976959,0.347397,0.02373,0.149347,0.854082
0,0.509445,0.976959,0.347397,0.02373,0.149347,0.854082
0,0.509445,0.976959,0.347397,0.02373,0.149347,0.854082
0,0.509445,0.976959,0.347397,0.02373,0.149347,0.854082
0,0.509445,0.976959,0.347397,0.02373,0.149347,0.854082
0,0.509445,0.976959,0.347397,0.02373,0.149347,0.854082
0,0.509445,0.976959,0.347397,0.163409,1.039397,2.194408
0,0.394958,1.335419,0.296631,0.163409,1.039397,2.194408
0,0.394958,1.335419,0.296631,0.163409,1.039397,2.194408
0,0.394958,1.335419,0.296631,0.163409,1.039397,2.194408
0,0.394958,1.335419,0.296631,0.163409,1.039397,2.194408
0,0.394958,1.335419,0.296631,0.163409,1.039397,2.194408
0,0.394958,1.335419,0.296631,0.163409,1.039397,2.194408
0,0.394958,1.335419,0.296631,0.163409,1.039397,2.194408
0,0.394958,1.335419,0.296631,0.163409,1.039397,2.194408
0,0.394958,1.335419,0.296631,0.163409,1.039397,2.194408
0,0.394958,1.335419,0.296631,0.163409,1.039397,2.194408
0,0.394958,1.335419,0.296631,0.163409,1.039397,2.194408
0,0.394958,1.335419,0.296631,0.163409,1.039397,2.194408
0,0.394958,1.335419,0.296631,0.163409,1.039397,2.194408
0,0.394958,1.335419,0.296631,0.163409,1.039397,2.194408
0,0.394958,1.335419,0.296631,0.163409,1.039397,2.194408
0,0.394958,1.335419,0.296631,0.163409,1.039397,2.194408
0,0.394958,1.335419,0.296631,0.163409,1.039397,2.194408
0,0.394958,1.335419,0.296631,0.303963,0.336926,1.980289
0,0.183273,0.830612,0.107513,0.303963,0.336926,1.980289
0,0.183273,0.830612,0.107513,0.303963,0.336926,1.980289
0,0.183273,0.830612,0.107513,0.303963,0.336926,1.980289
0,0.183273,0.830612,0.107513,0.303963,0.336926,1.980289
0,0.183273,0.830612,0.107513,0.303963,0.336926,1.980289
0,0.183273,0.830612,0.107513,0.303963,0.336926,1.980289
0,0.183273,0.830612,0.107513,0.303963,0.336926,1.980289
0,0.183273,0.830612,0.107513,0.303963,0.336926,1.980289
0,0.183273,0.830612,0.107513,0.303963,0.336926,1.980289
0,0.183273,0.830612,0.107513,0.303963,0.336926,1.980289
0,0.183273,0.830612,0.107513,0.303963,0.336926,1.980289
0,0.183273,0.830612,0.107513,0.303963,0.336926,1.980289
0,0.183273,0.830612,0.107513,0.303963,0.336926,1.980289
0,0.183273,0.830612,0.107513,0.303963,0.336926,1.980289
0,0.183273,0.830612,0.107513,0.303963,0.336926,1.980289
0,0.183273,0.830612,0.107513,0.303963,0.336926,1.980289
0,0.183273,0.830612,0.107513,0.303963,0.336926,1.980289
0,0.183273,0.830612,0.107513,0.303963,0.336926,1.980289
0,0.183273,0.830612,0.107513,0.149094,0.264466,0.039882
0,0.09082,0.82309,0.078186,0.149094,0.264466,0.039882
0,0.09082,0.82309,0.078186,0.149094,0.264466,0.039882
0,0.09082,0.82309,0.078186,0.149094,0.264466,0.039882
0,0.09082,0.82309,0.078186,0.149094,0.264466,0.039882
0,0.09082,0.82309,0.078186,0.149094,0.264466,0.039882
0,0.09082,0.82309,0.078186,0.149094,0.264466,0.039882
0,0.09082,0.82309,0.078186,0.149094,0.264466,0.039882
0,0.09082,0.82309,0.078186,0.149094,0.264466,0.039882
0,0.09082,0.82309,0.078186,0.149094,0.264466,0.039882
0,0.09082,0.82309,0.078186,0.149094,0.264466,0.039882
0,0.09082,0.82309,0.078186,0.149094,0.264466,0.039882
0,0.09082,0.82309,0.078186,0.149094,0.264466,0.039882
0,0.09082,0.82309,0.078186,0.149094,0.264466,0.039882
0,0.09082,0.82309,0.078186,0.149094,0.264466,0.039882
0,0.09082,0.82309,0.078186,0.149094,0.264466,0.039882
0,0.09082,0.82309,0.078186,0.149094,0.264466,0.039882
0,0.09082,0.82309,0.078186,0.149094,0.264466,0.039882
0,0.09082,0.82309,0.078186,0.338653,0.460592,2.79085
0,0.415588,1.327209,0.326782,0.338653,0.460592,2.79085
0,0.415588,1.327209,0.326782,0.338653,0.460592,2.79085
0,0.415588,1.327209,0.326782,0.338653,0.460592,2.79085
0,0.415588,1.327209,0.326782,0.338653,0.460592,2.79085
0,0.415588,1.327209,0.326782,0.338653,0.460592,2.79085
0,0.415588,1.327209,0.326782,0.338653,0.460592,2.79085
0,0.415588,1.327209,0.326782,0.338653,0.460592,2.79085
0,0.415588,1.327209,0.326782,0.338653,0.460592,2.79085
0,0.415588,1.327209,0.326782,0.338653,0.460592,2.79085
0,0.415588,1.327209,0.326782,0.338653,0.460592,2.79085
0,0.415588,1.327209,0.326782,0.338653,0.460592,2.79085
0,0.415588,1.327209,0.326782,0.338653,0.460592,2.79085
0,0.415588,1.327209,0.326782,0.338653,0.460592,2.79085
0,0.415588,1.327209,0.326782,0.338653,0.460592,2.79085
0,0.415588,1.327209,0.326782,0.338653,0.460592,2.79085
0,0.415588,1.327209,0.326782,0.338653,0.460592,2.79085
0,0.415588,1.327209,0.326782,0.338653,0.460592,2.79085
0,0.415588,1.327209,0.326782,0.338653,0.460592,2.79085
0,0.415588,1.327209,0.326782,0.236188,0.705645,0.928759
0,0.361176,0.825821,0.323013,0.236188,0.705645,0.928759
0,0.361176,0.825821,0.323013,0.236188,0.705645,0.928759
0,0.361176,0.825821,0.323013,0.236188,0.705645,0.928759
0,0.361176,0.825821,0.323013,0.236188,0.705645,0.928759
0,0.361176,0.825821,0.323013,0.236188,0.705645,0.928759
0,0.361176,0.825821,0.323013,0.236188,0.705645,0.928759
0,0.361176,0.825821,0.323013,0.236188,0.705645,0.928759
0,0.361176,0.825821,0.323013,0.236188,0.705645,0.928759
0,0.361176,0.825821,0.323013,0.236188,0.705645,0.928759
0,0.361176,0.825821,0.323013,0.236188,0.705645,0.928759
0,0.361176,0.825821,0.323013,0.236188,0.705645,0.928759
0,0.361176,0.825821,0.323013,0.236188,0.705645,0.928759
0,0.361176,0.825821,0.323013,0.236188,0.705645,0.928759
0,0.361176,0.825821,0.323013,0.236188,0.705645,0.928759
0,0.361176,0.825821,0.323013,0.236188,0.705645,0.928759
0,0.361176,0.825821,0.323013,0.236188,0.705645,0.928759
0,0.361176,0.825821,0.323013,0.236188,0.705645,0.928759
0,0.361176,0.825821,0.323013,0.236188,0.705645,0.928759
0,0.369049,0.754227,0.300507,0.036434,0.689696,0.489834
0,0.369049,0.754227,0.300507,0.036434,0.689696,0.489834
0,0.369049,0.754227,0.300507,0.036434,0.689696,0.489834
0,0.369049,0.754227,0.300507,0.036434,0.689696,0.489834
0,0.369049,0.754227,0.300507,0.036434,0.689696,0.489834
0,0.369049,0.754227,0.300507,0.036434,0.689696,0.489834
0,0.369049,0.754227,0.300507,0.036434,0.689696,0.489834
0,0.369049,0.754227,0.300507,0.036434,0.689696,0.489834
0,0.369049,0.754227,0.300507,0.036434,0.689696,0.489834
0,0.369049,0.754227,0.300507,0.036434,0.689696,0.489834
0,0.369049,0.754227,0.300507,0.036434,0.689696,0.489834
0,0.369049,0.754227,0.300507,0.036434,0.689696,0.489834
0,0.369049,0.754227,0.300507,0.036434,0.689696,0.489834
0,0.369049,0.754227,0.300507,0.036434,0.689696,0.489834
0,0.369049,0.754227,0.300507,0.036434,0.689696,0.489834
0,0.369049,0.754227,0.300507,0.036434,0.689696,0.489834
0,0.369049,0.754227,0.300507,0.036434,0.689696,0.489834
0,0.369049,0.754227,0.300507,0.036434,0.689696,0.489834
0,0.369049,0.754227,0.300507,0.112268,0.140534,0.48333
0,0.317673,1.199188,0.410309,0.112268,0.140534,0.48333
0,0.317673,1.199188,0.410309,0.112268,0.140534,0.48333
0,0.317673,1.199188,0.410309,0.112268,0.140534,0.48333
0,0.317673,1.199188,0.410309,0.112268,0.140534,0.48333
0,0.317673,1.199188,0.410309,0.112268,0.140534,0.48333
0,0.317673,1.199188,0.410309,0.112268,0.140534,0.48333
0,0.317673,1.199188,0.410309,0.112268,0.140534,0.48333
0,0.317673,1.199188,0.410309,0.112268,0.140534,0.48333
0,0.317673,1.199188,0.410309,0.112268,0.140534,0.48333
0,0.317673,1.199188,0.410309,0.112268,0.140534,0.48333
0,0.317673,1.199188,0.410309,0.112268,0.140534,0.48333
0,0.317673,1.199188,0.410309,0.112268,0.140534,0.48333
0,0.317673,1.199188,0.410309,0.112268,0.140534,0.48333
0,0.317673,1.199188,0.410309,0.112268,0.140534,0.48333
0,0.317673,1.199188,0.410309,0.112268,0.140534,0.48333
0,0.317673,1.199188,0.410309,0.112268,0.140534,0.48333
0,0.317673,1.199188,0.410309,0.112268,0.140534,0.48333
0,0.317673,1.199188,0.410309,0.112268,0.140534,0.48333
0,0.353256,1.133911,0.299225,0.528863,0.959757,1.805066
0,0.353256,1.133911,0.299225,0.528863,0.959757,1.805066
0,0.353256,1.133911,0.299225,0.528863,0.959757,1.805066
0,0.353256,1.133911,0.299225,0.528863,0.959757,1.805066
0,0.353256,1.133911,0.299225,0.528863,0.959757,1.805066
0,0.353256,1.133911,0.299225,0.528863,0.959757,1.805066
0,0.353256,1.133911,0.299225,0.528863,0.959757,1.805066
0,0.353256,1.133911,0.299225,0.528863,0.959757,1.805066
0,0.353256,1.133911,0.299225,0.528863,0.959757,1.805066
0,0.353256,1.133911,0.299225,0.528863,0.959757,1.805066
0,0.353256,1.133911,0.299225,0.528863,0.959757,1.805066
0,0.353256,1.133911,0.299225,0.528863,0.959757,1.805066
0,0.353256,1.133911,0.299225,0.528863,0.959757,1.805066
0,0.353256,1.133911,0.299225,0.528863,0.959757,1.805066
0,0.353256,1.133911,0.299225,0.528863,0.959757,1.805066
0,0.353256,1.133911,0.299225,0.528863,0.959757,1.805066
0,0.353256,1.133911,0.299225,0.528863,0.959757,1.805066
0,0.353256,1.133911,0.299225,0.528863,0.959757,1.805066
0,0.353256,1.133911,0.299225,0.645241,0.156836,1.683055
0,0.146423,0.865723,0.149155,0.645241,0.156836,1.683055
0,0.146423,0.865723,0.149155,0.645241,0.156836,1.683055
0,0.146423,0.865723,0.149155,0.645241,0.156836,1.683055
0,0.146423,0.865723,0.149155,0.645241,0.156836,1.683055
0,0.146423,0.865723,0.149155,0.645241,0.156836,1.683055
0,0.146423,0.865723,0.149155,0.645241,0.156836,1.683055
0,0.146423,0.865723,0.149155,0.645241,0.156836,1.683055
0,0.146423,0.865723,0.149155,0.645241,0.156836,1.683055
0,0.146423,0.865723,0.149155,0.645241,0.156836,1.683055
0,0.146423,0.865723,0.149155,0.645241,0.156836,1.683055
0,0.146423,0.865723,0.149155,0.645241,0.156836,1.683055
0,0.146423,0.865723,0.149155,0.645241,0.156836,1.683055
0,0.146423,0.865723,0.149155,0.645241,0.156836,1.683055
0,0.146423,0.865723,0.149155,0.645241,0.156836,1.683055
0,0.146423,0.865723,0.149155,0.645241,0.156836,1.683055
0,0.146423,0.865723,0.149155,0.645241,0.156836,1.683055
0,0.146423,0.865723,0.149155,0.645241,0.156836,1.683055
0,0.146423,0.865723,0.149155,0.645241,0.156836,1.683055
0,0.146423,0.865723,0.149155,0.16378,0.089179,0.504149
0,0.133942,0.917053,0.212997,0.16378,0.089179,0.504149
0,0.133942,0.917053,0.212997,0.16378,0.089179,0.504149
0,0.133942,0.917053,0.212997,0.16378,0.089179,0.504149
0,0.133942,0.917053,0.212997,0.16378,0.089179,0.504149
0,0.133942,0.917053,0.212997,0.16378,0.089179,0.504149
0,0.133942,0.917053,0.212997,0.16378,0.089179,0.504149
0,0.133942,0.917053,0.212997,0.16378,0.089179,0.504149
0,0.133942,0.917053,0.212997,0.16378,0.089179,0.504149
0,0.133942,0.917053,0.212997,0.16378,0.089179,0.504149
0,0.133942,0.917053,0.212997,0.16378,0.089179,0.504149
0,0.133942,0.917053,0.212997,0.16378,0.089179,0.504149
0,0.133942,0.917053,0.212997,0.16378,0.089179,0.504149
0,0.133942,0.917053,0.212997,0.16378,0.089179,0.504149
0,0.133942,0.917053,0.212997,0.16378,0.089179,0.504149
0,0.133942,0.917053,0.212997,0.16378,0.089179,0.504149
0,0.133942,0.917053,0.212997,0.16378,0.089179,0.504149
0,0.133942,0.917053,0.212997,0.16378,0.089179,0.504149
0,0.133942,0.917053,0.212997,0.355449,1.363575,2.245516
0,0.276978,1.119583,0.288345,0.355449,1.363575,2.245516
0,0.276978,1.119583,0.288345,0.355449,1.363575,2.245516
0,0.276978,1.119583,0.288345,0.355449,1.363575,2.245516
0,0.276978,1.119583,0.288345,0.355449,1.363575,2.245516
0,0.276978,1.119583,0.288345,0.355449,1.363575,2.245516
0,0.276978,1.119583,0.288345,0.355449,1.363575,2.245516
0,0.276978,1.119583,0.288345,0.355449,1.363575,2.245516
0,0.276978,1.119583,0.288345,0.355449,1.363575,2.245516
0,0.276978,1.119583,0.288345,0.355449,1.363575,2.245516
0,0.276978,1.119583,0.288345,0.355449,1.363575,2.245516
0,0.276978,1.119583,0.288345,0.355449,1.363575,2.245516
0,0.276978,1.119583,0.288345,0.355449,1.363575,2.245516
0,0.276978,1.119583,0.288345,0.355449,1.363575,2.245516
0,0.276978,1.119583,0.288345,0.355449,1.363575,2.245516
0,0.276978,1.119583,0.288345,0.355449,1.363575,2.245516
0,0.276978,1.119583,0.288345,0.355449,1.363575,2.245516
